unique_id,age,gender,bfi_a1,bfi_a2,bfi_a3,bfi_a4,bfi_a5,bfi_a6,bfi_a7,bfi_a8,bfi_a9,bfi_c1,bfi_c2,bfi_c3,bfi_c4,bfi_c5,bfi_c6,bfi_c7,bfi_c8,bfi_c9,bfi_e1,bfi_e2,bfi_e3,bfi_e4,bfi_e5,bfi_e6,bfi_e7,bfi_e8,bfi_n1,bfi_n2,bfi_n3,bfi_n4,bfi_n5,bfi_n6,bfi_n7,bfi_n8,bfi_o1,bfi_o10,bfi_o2,bfi_o3,bfi_o4,bfi_o5,bfi_o6,bfi_o7,bfi_o8,bfi_o9,bfi_logical_number_violation,bfi_questionnaire_inclusion,mean_extroversion,mean_conscient,mean_neuroticism,mean_agreeable,mean_openness,bfi_mean_violation,D,mean1,mean2,SD,d_score_range,iat_completed_trials,proportion_fast_reaction_time,proportion_low_accuracy_iat,exclude_accuracy,exclude_duplicate_data,exclude_participant
440109,46,other/missing/error,NA,NA,NA,NA,NA,NA,NA,NA,NA,6,5,6,3,3,5,5,5,5,2,2,2,4,2,4,2,3,3,4,6,4,3,5,2,4,NA,NA,NA,NA,NA,NA,NA,NA,NA,NA,include,include,2.625,4.777777777777778,3.875,NA,NA,include,-0.3998360512190347,797,666.55,326.2587243003209,include,include,0,0.025,include,include,include
355243,27,other/missing/error,4,4,4,4,4,5,5,4,4,NA,NA,NA,NA,NA,NA,NA,NA,NA,NA,NA,NA,NA,NA,NA,NA,NA,NA,NA,NA,NA,NA,NA,NA,NA,4,3,5,5,6,4,5,4,5,3,include,include,NA,NA,NA,4.222222222222222,4.4,include,-0.3434216186309965,1017.6,895.4375,355.7216359499562,include,include,0,0.008333333333333333,include,include,include
214625,20,other/missing/error,2,4,4,4,5,6,4,5,5,NA,NA,NA,NA,NA,NA,NA,NA,NA,NA,NA,NA,NA,NA,NA,NA,NA,NA,NA,NA,NA,NA,NA,NA,NA,4,4,4,4,6,4,4,3,4,5,include,include,NA,NA,NA,4.333333333333333,4.2,include,-0.3807108630693079,708.475,642.7375,172.67040785235656,include,include,0,0.041666666666666664,include,include,include
214148,20,other/missing/error,1,4,6,4,4,2,5,3,3,NA,NA,NA,NA,NA,NA,NA,NA,NA,NA,NA,NA,NA,NA,NA,NA,NA,NA,NA,NA,NA,NA,NA,NA,NA,3,2,6,4,4,4,4,2,4,5,include,include,NA,NA,NA,3.5555555555555554,3.8,include,0.11637294476883331,736.45,766.2375,255.9658523651755,include,include,0,0.11666666666666667,include,include,include
213400,29,other/missing/error,5,4,6,3,5,6,5,6,5,NA,NA,NA,NA,NA,NA,NA,NA,NA,NA,NA,NA,NA,NA,NA,NA,NA,NA,NA,NA,NA,NA,NA,NA,NA,2,2,4,4,5,2,3,3,4,1,include,include,NA,NA,NA,5,3,include,-0.2559084153616312,926.475,807.4625,465.05895412552263,include,include,0,0.11666666666666667,include,include,include
216503,33,other/missing/error,4,5,1,2,4,2,4,3,5,NA,NA,NA,NA,NA,NA,NA,NA,NA,NA,NA,NA,NA,NA,NA,NA,NA,NA,NA,NA,NA,NA,NA,NA,NA,4,5,6,5,5,4,5,5,6,3,include,include,NA,NA,NA,3.3333333333333335,4.8,include,0.21209069738980843,1014.925,1406.3625,1845.613715346337,include,include,0,0.19166666666666668,include,include,include
369479,28,other/missing/error,NA,NA,NA,NA,NA,NA,NA,NA,NA,5,4,5,2,3,6,4,6,3,6,4,4,5,5,5,4,6,2,2,4,5,3,2,1,5,NA,NA,NA,NA,NA,NA,NA,NA,NA,NA,include,include,4.875,4.222222222222222,3,NA,NA,include,-0.15485518453796526,697.425,644.3625,342.6588535496586,include,include,0,0.03333333333333333,include,include,include
220525,33,other/missing/error,NA,NA,NA,NA,NA,NA,NA,NA,NA,6,5,5,3,5,6,6,6,3,6,3,3,5,3,6,1,5,4,5,5,4,4,6,4,2,NA,NA,NA,NA,NA,NA,NA,NA,NA,NA,include,include,4,5,4.25,NA,NA,include,0.17211157816499234,610.825,644.425,195.22219456839645,include,include,0,0.016666666666666666,include,include,include
225948,23,other/missing/error,3,5,4,3,2,3,4,3,5,NA,NA,NA,NA,NA,NA,NA,NA,NA,NA,NA,NA,NA,NA,NA,NA,NA,NA,NA,NA,NA,NA,NA,NA,NA,5,5,6,5,5,5,6,4,6,6,include,include,NA,NA,NA,3.5555555555555554,5.3,include,-0.5165614475236541,905.15,734.775,329.8252334098129,include,include,0,0.016666666666666666,include,include,include
227399,16,other/missing/error,2,3,2,3,4,1,3,1,2,NA,NA,NA,NA,NA,NA,NA,NA,NA,NA,NA,NA,NA,NA,NA,NA,NA,NA,NA,NA,NA,NA,NA,NA,NA,3,5,6,5,3,2,4,3,5,3,include,include,NA,NA,NA,2.3333333333333335,3.9,include,0.10128785747529007,718.5,749.775,308.77343819450175,include,include,0,0.058333333333333334,include,include,include
228671,18,other/missing/error,5,5,6,6,5,3,6,6,6,NA,NA,NA,NA,NA,NA,NA,NA,NA,NA,NA,NA,NA,NA,NA,NA,NA,NA,NA,NA,NA,NA,NA,NA,NA,4,5,6,4,5,4,5,5,5,6,include,include,NA,NA,NA,5.333333333333333,4.9,include,-0.47792567274045583,1062.65,728.5875,698.9842125125122,include,include,0,0.11666666666666667,include,include,include
232178,27,other/missing/error,NA,NA,NA,NA,NA,NA,NA,NA,NA,5,5,3,3,3,2,5,2,2,4,3,2,NA,3,5,2,4,6,5,6,6,6,5,5,6,NA,NA,NA,NA,NA,NA,NA,NA,NA,NA,include,include,3.2857142857142856,3.3333333333333335,5.625,NA,NA,include,-0.35078270430631386,840.9,755.6625,242.99231106208714,include,include,0,0.05,include,include,include
232474,30,other/missing/error,4,6,5,4,5,3,6,2,3,NA,NA,NA,NA,NA,NA,NA,NA,NA,NA,NA,NA,NA,NA,NA,NA,NA,NA,NA,NA,NA,NA,NA,NA,NA,6,5,6,6,6,6,6,6,6,6,include,include,NA,NA,NA,4.222222222222222,5.9,include,-0.03987338126605477,725.575,713.1875,310.6709189608116,include,include,0,0.06666666666666667,include,include,include
233978,44,other/missing/error,NA,NA,NA,NA,NA,NA,NA,NA,NA,5,6,6,3,6,6,5,5,3,4,2,5,4,3,5,3,6,2,2,4,2,1,4,2,3,NA,NA,NA,NA,NA,NA,NA,NA,NA,NA,include,include,4,5,2.5,NA,NA,include,-0.560702130589431,830.225,718.6125,199.05845530258438,include,include,0,0.025,include,include,include
235367,21,other/missing/error,1,2,4,5,2,1,1,1,4,NA,NA,NA,NA,NA,NA,NA,NA,NA,NA,NA,NA,NA,NA,NA,NA,NA,NA,NA,NA,NA,NA,NA,NA,NA,6,5,6,6,5,5,5,4,4,6,include,include,NA,NA,NA,2.3333333333333335,5.2,include,0.10893215777285095,1221.675,1315.3,859.4798993629598,include,include,0,0.06666666666666667,include,include,include
238241,51,other/missing/error,5,5,6,5,6,2,5,1,6,NA,NA,NA,NA,NA,NA,NA,NA,NA,NA,NA,NA,NA,NA,NA,NA,NA,NA,NA,NA,NA,NA,NA,NA,NA,5,4,6,4,5,4,5,3,5,5,include,include,NA,NA,NA,4.555555555555555,4.6,include,-0.6261674814615079,1122.825,863.95,413.4277292646563,include,include,0,0.03333333333333333,include,include,include
239346,20,other/missing/error,NA,NA,NA,NA,NA,NA,NA,NA,NA,5,6,6,6,4,5,5,6,5,6,6,5,5,5,4,5,6,4,4,4,4,4,4,4,4,NA,NA,NA,NA,NA,NA,NA,NA,NA,NA,include,include,5.25,5.333333333333333,4,NA,NA,include,-0.08604037328148856,798.625,773.45,292.59519734575946,include,include,0,0.041666666666666664,include,include,include
241587,41,other/missing/error,5,5,2,4,6,2,5,3,5,NA,NA,NA,NA,NA,NA,NA,NA,NA,NA,NA,NA,NA,NA,NA,NA,NA,NA,NA,NA,NA,NA,NA,NA,NA,6,3,6,6,6,5,5,4,5,5,include,include,NA,NA,NA,4.111111111111111,5.1,include,-0.5625180069585218,1903.4,800.075,1961.403877478638,include,include,0,0.041666666666666664,include,include,include
243747,23,other/missing/error,NA,NA,NA,NA,NA,NA,NA,NA,NA,6,3,5,3,2,3,5,5,4,4,5,3,3,3,5,2,5,4,3,4,4,2,5,1,4,NA,NA,NA,NA,NA,NA,NA,NA,NA,NA,include,include,3.75,4,3.375,NA,NA,include,-0.13651781625696807,740.65,703.4375,272.583469471521,include,include,0,0.09166666666666666,include,include,include
245717,24,other/missing/error,NA,NA,NA,NA,NA,NA,NA,NA,NA,5,5,5,4,4,4,4,4,3,2,1,3,3,1,3,2,3,4,3,3,4,4,3,3,4,NA,NA,NA,NA,NA,NA,NA,NA,NA,NA,include,include,2.25,4.222222222222222,3.5,NA,NA,include,-0.1391197439210437,824.25,785.05,281.77165149360604,include,include,0,0.041666666666666664,include,include,include
249730,37,other/missing/error,3,4,3,4,4,6,4,3,6,NA,NA,NA,NA,NA,NA,NA,NA,NA,NA,NA,NA,NA,NA,NA,NA,NA,NA,NA,NA,NA,NA,NA,NA,NA,2,1,4,1,3,1,4,4,3,1,include,include,NA,NA,NA,4.111111111111111,2.4,include,-0.13360284265812072,1140.175,1047.6,692.9119033559208,include,include,0,0.125,include,include,include
251939,28,other/missing/error,NA,NA,NA,NA,NA,NA,NA,NA,NA,5,4,4,4,3,4,4,6,3,4,3,4,5,3,3,1,4,3,3,4,4,1,4,3,4,NA,NA,NA,NA,NA,NA,NA,NA,NA,NA,include,include,3.375,4.111111111111111,3.25,NA,NA,include,0.0435008801625283,766.625,783.675,391.9460924996833,include,include,0,0.058333333333333334,include,include,include
253188,32,other/missing/error,3,5,5,4,6,4,6,6,6,NA,NA,NA,NA,NA,NA,NA,NA,NA,NA,NA,NA,NA,NA,NA,NA,NA,NA,NA,NA,NA,NA,NA,NA,NA,3,4,6,6,6,4,6,5,6,3,include,include,NA,NA,NA,5,4.9,include,-0.3469623508897915,931.525,810.525,348.7410080364432,include,include,0,0.075,include,include,include
253519,22,other/missing/error,5,6,6,5,6,5,6,4,5,NA,NA,NA,NA,NA,NA,NA,NA,NA,NA,NA,NA,NA,NA,NA,NA,NA,NA,NA,NA,NA,NA,NA,NA,NA,5,5,5,6,6,5,5,2,6,1,include,include,NA,NA,NA,5.333333333333333,4.6,include,0.10496476345408157,732.825,769.3,347.49756775240536,include,include,0,0.15,include,include,include
254504,24,other/missing/error,NA,NA,NA,NA,NA,NA,NA,NA,NA,4,3,4,3,2,4,4,4,4,4,3,3,4,3,6,3,4,4,1,2,2,3,4,2,1,NA,NA,NA,NA,NA,NA,NA,NA,NA,NA,include,include,3.75,3.5555555555555554,2.375,NA,NA,include,-0.35696411106756143,956.05,791.2625,461.6360437669072,include,include,0,0.03333333333333333,include,include,include
285703,33,other/missing/error,NA,NA,NA,NA,NA,NA,NA,NA,NA,4,1,4,1,2,3,2,5,1,6,6,4,6,6,2,5,6,6,6,5,6,6,4,5,5,NA,NA,NA,NA,NA,NA,NA,NA,NA,NA,include,include,5.125,2.5555555555555554,5.375,NA,NA,include,-0.5218578414479752,1671.775,1245.1375,817.5358615216519,include,include,0,0.016666666666666666,include,include,include
287257,21,other/missing/error,NA,NA,NA,NA,NA,NA,NA,NA,NA,6,5,6,3,6,4,5,5,5,6,4,5,5,5,5,3,5,4,3,5,5,3,4,2,4,NA,NA,NA,NA,NA,NA,NA,NA,NA,NA,include,include,4.75,5,3.75,NA,NA,include,-0.244906868714464,741.325,672.2875,281.8928695727623,include,include,0,0.08333333333333333,include,include,include
289486,56,other/missing/error,5,6,6,6,6,6,6,6,6,NA,NA,NA,NA,NA,NA,NA,NA,NA,NA,NA,NA,NA,NA,NA,NA,NA,NA,NA,NA,NA,NA,NA,NA,NA,4,5,5,4,5,4,5,2,4,6,include,include,NA,NA,NA,5.888888888888889,4.4,include,-0.2671026092992613,679.4,616.0625,237.12797177895314,include,include,0,0.025,include,include,include
289105,32,other/missing/error,2,4,4,4,3,3,4,5,5,NA,NA,NA,NA,NA,NA,NA,NA,NA,NA,NA,NA,NA,NA,NA,NA,NA,NA,NA,NA,NA,NA,NA,NA,NA,6,4,6,5,5,5,5,4,5,5,include,include,NA,NA,NA,3.7777777777777777,5,include,-0.41412080867733414,1035.85,794.325,583.2235302819236,include,include,0,0.025,include,include,include
291619,22,other/missing/error,NA,NA,NA,NA,NA,NA,NA,NA,NA,5,1,6,3,6,4,NA,4,3,6,2,4,5,3,4,3,5,1,3,3,6,3,2,1,6,NA,NA,NA,NA,NA,NA,NA,NA,NA,NA,include,include,4,4,3.125,NA,NA,include,-0.23352539061661481,836.125,745.725,387.1099402137911,include,include,0,0.058333333333333334,include,include,include
293517,21,other/missing/error,3,3,4,4,6,3,6,4,3,NA,NA,NA,NA,NA,NA,NA,NA,NA,NA,NA,NA,NA,NA,NA,NA,NA,NA,NA,NA,NA,NA,NA,NA,NA,4,5,6,4,5,4,5,3,4,5,include,include,NA,NA,NA,4,4.5,include,-0.29442305273105995,1273.35,1145.7625,433.347520910818,include,include,0,0.008333333333333333,include,include,include
296088,49,other/missing/error,6,5,4,6,6,3,6,6,5,NA,NA,NA,NA,NA,NA,NA,NA,NA,NA,NA,NA,NA,NA,NA,NA,NA,NA,NA,NA,NA,NA,NA,NA,NA,5,3,6,4,1,5,4,4,6,4,include,include,NA,NA,NA,5.222222222222222,4.2,include,-0.2674100491713677,878.275,808.675,260.2744370141355,include,include,0,0.05,include,include,include
310835,30,other/missing/error,2,3,3,3,2,3,3,2,4,NA,NA,NA,NA,NA,NA,NA,NA,NA,NA,NA,NA,NA,NA,NA,NA,NA,NA,NA,NA,NA,NA,NA,NA,NA,3,4,6,4,3,5,1,5,6,6,include,include,NA,NA,NA,2.7777777777777777,4.3,include,-0.5754700685311114,1299.625,904.35,686.8732565169554,include,include,0,0.06666666666666667,include,include,include
310981,52,other/missing/error,4,6,5,5,6,2,5,5,5,NA,NA,NA,NA,NA,NA,NA,NA,NA,NA,NA,NA,NA,NA,NA,NA,NA,NA,NA,NA,NA,NA,NA,NA,NA,6,2,5,6,6,5,4,2,6,5,include,include,NA,NA,NA,4.777777777777778,4.7,include,-0.6946936015261722,1775.3,1075.75,1006.9907056336185,include,include,0,0.08333333333333333,include,include,include
311817,48,other/missing/error,NA,NA,NA,NA,NA,NA,NA,NA,NA,5,5,6,3,6,6,5,6,6,5,2,6,5,5,6,6,5,1,1,3,1,1,1,1,1,NA,NA,NA,NA,NA,NA,NA,NA,NA,NA,include,include,5,5.333333333333333,1.25,NA,NA,include,-0.42949800321825277,979.55,806.275,403.43610145248783,include,include,0,0.05,include,include,include
316021,34,other/missing/error,3,6,6,6,5,1,5,2,4,NA,NA,NA,NA,NA,NA,NA,NA,NA,NA,NA,NA,NA,NA,NA,NA,NA,NA,NA,NA,NA,NA,NA,NA,NA,6,1,6,6,5,6,2,6,6,1,include,include,NA,NA,NA,4.222222222222222,4.5,include,-0.1577835187770125,691.125,654.9875,229.03215925277567,include,include,0,0.16666666666666666,include,include,include
314655,19,other/missing/error,NA,NA,NA,NA,NA,NA,NA,NA,NA,6,5,6,6,6,6,6,6,2,5,3,5,5,3,6,2,4,1,2,5,4,2,4,3,4,NA,NA,NA,NA,NA,NA,NA,NA,NA,NA,include,include,4.125,5.444444444444445,3.125,NA,NA,include,-0.5061878271967456,891.025,714.175,349.3762403955672,include,include,0,0.025,include,include,include
329537,17,other/missing/error,2,3,2,3,4,4,2,2,4,NA,NA,NA,NA,NA,NA,NA,NA,NA,NA,NA,NA,NA,NA,NA,NA,NA,NA,NA,NA,NA,NA,NA,NA,NA,5,1,6,4,5,5,3,4,5,3,include,include,NA,NA,NA,2.888888888888889,4.1,include,-0.36196787306876493,1112.225,845.9,735.7697182959791,include,include,0,0.06666666666666667,include,include,include
337414,31,other/missing/error,3,4,3,5,5,2,4,3,4,NA,NA,NA,NA,NA,NA,NA,NA,NA,NA,NA,NA,NA,NA,NA,NA,NA,NA,NA,NA,NA,NA,NA,NA,NA,3,3,5,2,4,1,4,3,4,3,include,include,NA,NA,NA,3.6666666666666665,3.2,include,-0.16750006673964254,762.675,718.6375,262.910343005717,include,include,0,0.041666666666666664,include,include,include
339121,29,other/missing/error,3,6,4,6,6,6,5,6,6,NA,NA,NA,NA,NA,NA,NA,NA,NA,NA,NA,NA,NA,NA,NA,NA,NA,NA,NA,NA,NA,NA,NA,NA,NA,5,1,6,4,5,6,3,6,5,5,include,include,NA,NA,NA,5.333333333333333,4.6,include,-0.31956271782791773,744.975,666.775,244.7093970520998,include,include,0,0.06666666666666667,include,include,include
343954,21,other/missing/error,NA,NA,NA,NA,NA,NA,NA,NA,NA,6,6,6,3,3,6,6,5,4,6,5,4,5,2,6,6,6,4,5,2,1,2,4,1,2,NA,NA,NA,NA,NA,NA,NA,NA,NA,NA,include,include,5,5,2.625,NA,NA,include,-0.21752741539003911,979.025,897.8,373.40120947218975,include,include,0,0,include,include,include
347838,21,other/missing/error,2,5,3,4,3,3,3,2,4,NA,NA,NA,NA,NA,NA,NA,NA,NA,NA,NA,NA,NA,NA,NA,NA,NA,NA,NA,NA,NA,NA,NA,NA,NA,5,2,6,4,6,4,4,3,4,NA,include,exclude,NA,NA,NA,3.2222222222222223,4.222222222222222,include,-0.7883258777157188,892.65,616.075,350.83841317173744,include,include,0,0.058333333333333334,include,include,exclude
348671,26,other/missing/error,NA,NA,NA,NA,NA,NA,NA,NA,NA,4,2,4,2,2,3,3,4,2,2,2,2,3,2,2,2,3,4,5,4,4,4,4,3,5,NA,NA,NA,NA,NA,NA,NA,NA,NA,NA,include,include,2.25,2.888888888888889,4.125,NA,NA,include,-0.3514639286826512,813.875,734.0375,227.1570237641314,include,include,0,0.06666666666666667,include,include,include
354340,32,other/missing/error,NA,NA,NA,NA,NA,NA,NA,NA,NA,5,5,6,1,5,4,4,5,5,4,3,4,3,3,4,5,4,2,3,2,2,2,2,3,3,NA,NA,NA,NA,NA,NA,NA,NA,NA,NA,include,include,3.75,4.444444444444445,2.375,NA,NA,include,-0.32684615131438693,893.875,736.9,480.27183238577845,include,include,0,0.041666666666666664,include,include,include
357132,51,other/missing/error,6,4,6,6,6,6,5,5,5,NA,NA,NA,NA,NA,NA,NA,NA,NA,NA,NA,NA,NA,NA,NA,NA,NA,NA,NA,NA,NA,NA,NA,NA,NA,5,5,6,5,6,6,6,5,6,5,include,include,NA,NA,NA,5.444444444444445,5.5,include,-0.6254329841185189,1426.325,1178.5625,396.14556042194494,include,include,0,0.016666666666666666,include,include,include
368445,25,other/missing/error,2,6,1,1,6,3,4,5,6,NA,NA,NA,NA,NA,NA,NA,NA,NA,NA,NA,NA,NA,NA,NA,NA,NA,NA,NA,NA,NA,NA,NA,NA,NA,6,1,4,1,3,6,6,NA,6,3,include,exclude,NA,NA,NA,3.7777777777777777,4,include,-0.04918924445530779,668.45,656.75,237.85687561496079,include,include,0.008333333333333333,0.058333333333333334,include,include,exclude
361490,41,other/missing/error,NA,NA,NA,NA,NA,NA,NA,NA,NA,6,1,6,2,3,5,5,6,3,6,3,6,6,4,5,2,3,3,3,4,4,2,4,2,2,NA,NA,NA,NA,NA,NA,NA,NA,NA,NA,include,include,4.375,4.111111111111111,3,NA,NA,include,0.13197495251566554,604.075,627.275,175.79093273207332,include,include,0,0.06666666666666667,include,include,include
365480,21,other/missing/error,6,6,6,6,6,5,6,2,6,NA,NA,NA,NA,NA,NA,NA,NA,NA,NA,NA,NA,NA,NA,NA,NA,NA,NA,NA,NA,NA,NA,NA,NA,NA,5,4,6,5,6,5,6,3,6,4,include,include,NA,NA,NA,5.444444444444445,5,include,-0.3035878787294704,833.375,721.15,369.66232139987585,include,include,0,0.05,include,include,include
365691,32,other/missing/error,3,5,5,5,3,5,5,4,5,NA,NA,NA,NA,NA,NA,NA,NA,NA,NA,NA,NA,NA,NA,NA,NA,NA,NA,NA,NA,NA,NA,NA,NA,NA,4,3,6,5,6,4,6,5,5,5,include,include,NA,NA,NA,4.444444444444445,4.9,include,-0.20175693646017603,717.275,667.175,248.31859998969134,include,include,0,0.041666666666666664,include,include,include
365766,20,other/missing/error,NA,NA,NA,NA,NA,NA,NA,NA,NA,4,3,4,2,3,5,3,4,2,4,3,5,5,3,4,2,4,2,3,4,4,1,1,2,3,NA,NA,NA,NA,NA,NA,NA,NA,NA,NA,include,include,3.75,3.3333333333333335,2.5,NA,NA,include,-0.7801177215732966,908.8,678.2,295.59641272465785,include,include,0,0.09166666666666666,include,include,include
366258,25,other/missing/error,5,5,6,5,6,3,6,6,6,NA,NA,NA,NA,NA,NA,NA,NA,NA,NA,NA,NA,NA,NA,NA,NA,NA,NA,NA,NA,NA,NA,NA,NA,NA,6,2,6,6,5,5,5,6,5,3,include,include,NA,NA,NA,5.333333333333333,4.9,include,-0.6511658072686008,1208.35,855.3,542.1814168666408,include,include,0,0.058333333333333334,include,include,include
372836,26,other/missing/error,2,5,4,5,5,2,6,3,5,NA,NA,NA,NA,NA,NA,NA,NA,NA,NA,NA,NA,NA,NA,NA,NA,NA,NA,NA,NA,NA,NA,NA,NA,NA,6,5,5,6,6,6,6,4,5,6,include,include,NA,NA,NA,4.111111111111111,5.5,include,-0.3175256049540191,1097.15,909.2,591.920768176214,include,include,0,0.08333333333333333,include,include,include
388154,19,other/missing/error,2,5,6,5,3,4,6,4,5,NA,NA,NA,NA,NA,NA,NA,NA,NA,NA,NA,NA,NA,NA,NA,NA,NA,NA,NA,NA,NA,NA,NA,NA,NA,4,6,6,3,5,4,6,3,5,5,include,include,NA,NA,NA,4.444444444444445,4.7,include,-0.8023305510403469,750.9,531.7,273.20410486148495,include,include,0,0.05,include,include,include
491808,22,other/missing/error,NA,NA,NA,NA,NA,NA,NA,NA,NA,5,5,6,5,6,5,6,6,5,2,3,5,3,2,2,3,3,2,2,4,3,2,4,4,4,NA,NA,NA,NA,NA,NA,NA,NA,NA,NA,include,include,2.875,5.444444444444445,3.125,NA,NA,include,0.18770138067446956,686.8,741.25,290.08843624028884,include,include,0,0.075,include,include,include
418670,17,other/missing/error,4,4,5,5,5,2,4,3,4,NA,NA,NA,NA,NA,NA,NA,NA,NA,NA,NA,NA,NA,NA,NA,NA,NA,NA,NA,NA,NA,NA,NA,NA,NA,5,4,6,5,5,5,5,5,6,4,include,include,NA,NA,NA,4,5,include,-0.05574712165172399,585.55,577.3375,147.3170229542426,include,include,0,0.05,include,include,include
394075,21,other/missing/error,3,5,6,5,3,6,5,6,6,NA,NA,NA,NA,NA,NA,NA,NA,NA,NA,NA,NA,NA,NA,NA,NA,NA,NA,NA,NA,NA,NA,NA,NA,NA,5,5,6,6,6,5,6,3,5,4,include,include,NA,NA,NA,5,5.1,include,0.09859022735573014,732.05,765.85,342.8331682210649,include,include,0,0.025,include,include,include
401021,20,other/missing/error,NA,NA,NA,NA,NA,NA,NA,NA,NA,6,2,6,2,2,6,6,4,5,4,3,3,5,3,2,3,4,5,6,5,6,2,4,4,4,NA,NA,NA,NA,NA,NA,NA,NA,NA,NA,include,include,3.375,4.333333333333333,4.5,NA,NA,include,0.23866551538855635,684,760.0125,318.4896648191879,include,include,0,0.041666666666666664,include,include,include
419450,52,other/missing/error,5,4,6,6,4,5,4,3,6,NA,NA,NA,NA,NA,NA,NA,NA,NA,NA,NA,NA,NA,NA,NA,NA,NA,NA,NA,NA,NA,NA,NA,NA,NA,6,6,6,6,6,6,6,5,6,6,include,include,NA,NA,NA,4.777777777777778,5.9,include,-0.29267633942500193,765.7,677.75,300.5025967346334,include,include,0,0.025,include,include,include
421489,18,other/missing/error,2,5,5,3,5,3,4,3,5,NA,NA,NA,NA,NA,NA,NA,NA,NA,NA,NA,NA,NA,NA,NA,NA,NA,NA,NA,NA,NA,NA,NA,NA,NA,6,6,6,4,6,6,6,5,6,6,include,include,NA,NA,NA,3.888888888888889,5.7,include,-0.3243352241172064,682.325,597.95,260.1475070420012,include,include,0,0.06666666666666667,include,include,include
429123,43,other/missing/error,NA,NA,NA,NA,NA,NA,NA,NA,NA,6,6,6,3,6,5,6,5,2,4,3,3,5,2,5,4,5,4,2,5,4,2,4,2,6,NA,NA,NA,NA,NA,NA,NA,NA,NA,NA,include,include,3.875,5,3.625,NA,NA,include,-0.5727272116090188,4908.1,2793.9,3691.4607113923753,include,include,0,0.19166666666666668,include,include,include
429559,19,other/missing/error,3,5,4,6,6,6,6,5,6,NA,NA,NA,NA,NA,NA,NA,NA,NA,NA,NA,NA,NA,NA,NA,NA,NA,NA,NA,NA,NA,NA,NA,NA,NA,4,5,6,3,5,5,6,3,4,4,include,include,NA,NA,NA,5.222222222222222,4.5,include,-0.6429403500101324,2148.25,1199.1875,1476.128384203983,include,include,0,0.06666666666666667,include,include,include
433267,34,other/missing/error,NA,NA,NA,NA,NA,NA,NA,NA,NA,4,5,4,3,4,2,5,5,5,1,2,4,2,1,3,2,1,2,3,4,2,1,2,2,4,NA,NA,NA,NA,NA,NA,NA,NA,NA,NA,include,include,2,4.111111111111111,2.5,NA,NA,include,-0.3141298068170994,662.8,593.575,220.37068274869515,include,include,0,0.08333333333333333,include,include,include
435868,31,other/missing/error,5,4,5,6,5,3,5,3,5,NA,NA,NA,NA,NA,NA,NA,NA,NA,NA,NA,NA,NA,NA,NA,NA,NA,NA,NA,NA,NA,NA,NA,NA,NA,5,6,6,5,5,5,6,6,6,6,include,include,NA,NA,NA,4.555555555555555,5.6,include,0.15646204987780957,559.375,586.0375,170.40873503077802,include,include,0.008333333333333333,0.016666666666666666,include,include,include
442495,37,other/missing/error,5,6,5,6,5,4,6,4,5,NA,NA,NA,NA,NA,NA,NA,NA,NA,NA,NA,NA,NA,NA,NA,NA,NA,NA,NA,NA,NA,NA,NA,NA,NA,4,4,5,5,5,4,4,4,5,3,include,include,NA,NA,NA,5.111111111111111,4.3,include,-0.1774926027277851,603.1,580.175,129.16031230416644,include,include,0,0.058333333333333334,include,include,include
439554,37,other/missing/error,NA,NA,NA,NA,NA,NA,NA,NA,NA,4,4,4,3,4,2,4,5,4,4,3,3,4,2,4,3,3,1,3,4,2,2,5,2,4,NA,NA,NA,NA,NA,NA,NA,NA,NA,NA,include,include,3.25,3.7777777777777777,2.875,NA,NA,include,-0.15763535189865682,700.425,648.55,329.0822735838484,include,include,0,0.008333333333333333,include,include,include
440148,35,other/missing/error,NA,NA,NA,NA,NA,NA,NA,NA,NA,4,4,6,4,6,5,4,4,4,3,3,5,4,3,4,3,3,2,3,4,1,2,1,2,1,NA,NA,NA,NA,NA,NA,NA,NA,NA,NA,include,include,3.5,4.555555555555555,2,NA,NA,include,-0.28421716729802804,802.725,754.05,171.25988715861,include,include,0,0.025,include,include,include
446741,38,other/missing/error,NA,NA,NA,NA,NA,NA,NA,NA,NA,4,3,4,2,4,4,4,4,3,4,3,3,3,4,4,4,4,2,2,5,3,1,5,2,3,NA,NA,NA,NA,NA,NA,NA,NA,NA,NA,include,include,3.625,3.5555555555555554,2.875,NA,NA,include,-0.1956204579698495,1224.9,1130.4875,482.6310140555529,include,include,0,0.03333333333333333,include,include,include
585230,24,other/missing/error,4,5,4,4,5,5,4,3,4,NA,NA,NA,NA,NA,NA,NA,NA,NA,NA,NA,NA,NA,NA,NA,NA,NA,NA,NA,NA,NA,NA,NA,NA,NA,4,4,5,4,6,4,5,3,4,5,include,include,NA,NA,NA,4.222222222222222,4.4,include,-0.5462605844541182,648.2,570.4125,142.39998677139334,include,include,0,0.05,include,include,include
448449,60,other/missing/error,5,4,6,5,6,5,5,5,6,NA,NA,NA,NA,NA,NA,NA,NA,NA,NA,NA,NA,NA,NA,NA,NA,NA,NA,NA,NA,NA,NA,NA,NA,NA,5,1,6,6,4,5,4,6,6,2,include,include,NA,NA,NA,5.222222222222222,4.5,include,0.13462462276688184,783.525,830.75,350.79021229107246,include,include,0,0.03333333333333333,include,include,include
448828,30,other/missing/error,3,4,5,4,6,6,6,5,5,NA,NA,NA,NA,NA,NA,NA,NA,NA,NA,NA,NA,NA,NA,NA,NA,NA,NA,NA,NA,NA,NA,NA,NA,NA,5,2,6,4,4,4,4,3,5,4,include,include,NA,NA,NA,4.888888888888889,4.1,include,0.0053780735952797375,859.05,861.2875,416.0411642495729,include,include,0,0.008333333333333333,include,include,include
449383,42,other/missing/error,NA,NA,NA,NA,NA,NA,NA,NA,NA,5,5,6,3,5,6,5,5,5,3,1,5,5,3,5,2,4,1,2,5,4,1,6,1,4,NA,NA,NA,NA,NA,NA,NA,NA,NA,NA,include,include,3.5,5,3,NA,NA,include,-0.6006564398208769,1133.225,950.275,304.5834321772324,include,include,0,0,include,include,include
449631,32,other/missing/error,3,4,3,4,4,3,3,3,4,NA,NA,NA,NA,NA,NA,NA,NA,NA,NA,NA,NA,NA,NA,NA,NA,NA,NA,NA,NA,NA,NA,NA,NA,NA,4,3,6,4,5,4,4,3,4,4,include,include,NA,NA,NA,3.4444444444444446,4.1,include,0.20503143993372,759.45,847.7875,430.8485568289264,include,include,0,0.008333333333333333,include,include,include
466546,29,other/missing/error,NA,NA,NA,NA,NA,NA,NA,NA,NA,5,3,5,6,4,6,5,6,3,2,2,3,4,1,4,2,3,2,2,3,4,2,2,1,2,NA,NA,NA,NA,NA,NA,NA,NA,NA,NA,include,include,2.625,4.777777777777778,2.25,NA,NA,include,-0.7744717378784511,1356.625,895.0125,596.0353069364648,include,include,0,0.06666666666666667,include,include,include
467663,21,other/missing/error,4,5,4,5,5,3,4,4,4,NA,NA,NA,NA,NA,NA,NA,NA,NA,NA,NA,NA,NA,NA,NA,NA,NA,NA,NA,NA,NA,NA,NA,NA,NA,6,5,6,6,6,6,6,4,6,2,include,include,NA,NA,NA,4.222222222222222,5.3,include,0.257138934681148,500.8,540.225,153.32178321764835,include,exclude,0,0.06666666666666667,include,include,exclude
469605,25,other/missing/error,3,4,5,5,4,4,5,3,5,NA,NA,NA,NA,NA,NA,NA,NA,NA,NA,NA,NA,NA,NA,NA,NA,NA,NA,NA,NA,NA,NA,NA,NA,NA,5,3,5,5,5,5,3,5,5,2,include,include,NA,NA,NA,4.222222222222222,4.3,include,-0.09708997207702305,719.75,666.45,548.9753355549036,include,include,0,0.016666666666666666,include,include,include
478588,28,other/missing/error,NA,NA,NA,NA,NA,NA,NA,NA,NA,4,3,5,3,3,4,4,4,3,3,4,4,4,3,4,3,5,2,4,5,5,3,4,5,4,NA,NA,NA,NA,NA,NA,NA,NA,NA,NA,include,include,3.75,3.6666666666666665,4,NA,NA,include,0.033499241335584504,726.05,737.1125,330.23135924719827,include,include,0,0.025,include,include,include
516095,33,other/missing/error,NA,NA,NA,NA,NA,NA,NA,NA,NA,6,1,6,4,3,6,6,6,1,3,1,3,3,1,1,1,5,5,1,6,6,4,6,1,6,NA,NA,NA,NA,NA,NA,NA,NA,NA,NA,include,include,2.25,4.333333333333333,4.375,NA,NA,include,-0.26771544073828774,576.55,545.5375,115.84128249934234,include,include,0,0.11666666666666667,include,include,include
487509,19,other/missing/error,2,5,4,5,5,5,6,2,4,NA,NA,NA,NA,NA,NA,NA,NA,NA,NA,NA,NA,NA,NA,NA,NA,NA,NA,NA,NA,NA,NA,NA,NA,NA,5,4,5,4,4,4,2,2,4,3,include,include,NA,NA,NA,4.222222222222222,3.7,include,0.11243721947690066,622.875,647.8625,222.23512922367703,include,include,0,0.058333333333333334,include,include,include
488298,43,other/missing/error,NA,NA,NA,NA,NA,NA,NA,NA,NA,4,3,5,3,6,4,5,5,3,5,4,5,5,3,5,5,5,3,1,4,4,4,4,1,2,NA,NA,NA,NA,NA,NA,NA,NA,NA,NA,include,include,4.625,4.222222222222222,2.875,NA,NA,include,0.20761522386185902,1016.325,1197.5125,872.7081599784646,include,include,0,0.15833333333333333,include,include,include
499594,20,other/missing/error,NA,NA,NA,NA,NA,NA,NA,NA,NA,5,4,5,3,5,5,4,5,2,6,6,4,2,5,5,6,6,4,4,3,6,4,5,5,5,NA,NA,NA,NA,NA,NA,NA,NA,NA,NA,include,include,5,4.222222222222222,4.5,NA,NA,include,-0.2511798515099373,618.475,562.2375,223.89335634182092,include,include,0,0.025,include,include,include
510366,19,other/missing/error,2,NA,6,6,5,6,5,3,6,NA,NA,NA,NA,NA,NA,NA,NA,NA,NA,NA,NA,NA,NA,NA,NA,NA,NA,NA,NA,NA,NA,NA,NA,NA,6,1,3,3,3,4,1,5,4,2,include,exclude,NA,NA,NA,4.875,3.2,include,-0.5554551219726437,711.9,590.7,218.19944619390702,include,include,0,0.03333333333333333,include,include,exclude
511349,45,other/missing/error,6,5,6,5,5,NA,5,5,6,NA,NA,NA,NA,NA,NA,NA,NA,NA,NA,NA,NA,NA,NA,NA,NA,NA,NA,NA,NA,NA,NA,NA,NA,NA,5,1,5,4,5,5,4,6,5,4,include,exclude,NA,NA,NA,5.375,4.4,include,-0.901581530784094,1570.5,788.4,867.4756228866153,include,include,0,0.025,include,include,exclude
519468,27,other/missing/error,3,5,4,5,5,6,5,4,5,NA,NA,NA,NA,NA,NA,NA,NA,NA,NA,NA,NA,NA,NA,NA,NA,NA,NA,NA,NA,NA,NA,NA,NA,NA,5,2,5,5,5,5,4,5,6,4,include,include,NA,NA,NA,4.666666666666667,4.6,include,0.20608000673676033,561.275,604.975,212.05356449653536,include,include,0.008333333333333333,0.16666666666666666,include,include,include
522741,46,other/missing/error,NA,NA,NA,NA,NA,NA,NA,NA,NA,5,2,6,2,5,5,5,5,2,6,6,4,5,6,6,6,6,2,2,4,5,1,2,2,2,NA,NA,NA,NA,NA,NA,NA,NA,NA,NA,include,include,5.625,4.111111111111111,2.5,NA,NA,include,-0.12664347993280367,731.4,691.0125,318.9070611564789,include,include,0,0.05,include,include,include
527128,26,other/missing/error,NA,NA,NA,NA,NA,NA,NA,NA,NA,5,3,5,3,3,5,5,5,3,6,2,5,5,4,6,3,6,2,1,3,2,2,5,1,3,NA,NA,NA,NA,NA,NA,NA,NA,NA,NA,include,include,4.625,4.111111111111111,2.375,NA,NA,include,-0.0778289252976267,604.75,590.275,185.98483718805022,include,include,0,0.15,include,include,include
539125,32,other/missing/error,2,6,6,5,6,5,5,4,6,NA,NA,NA,NA,NA,NA,NA,NA,NA,NA,NA,NA,NA,NA,NA,NA,NA,NA,NA,NA,NA,NA,NA,NA,NA,5,6,5,3,6,3,6,2,5,4,include,include,NA,NA,NA,5,4.5,include,-0.2774114365809754,945.475,779.3125,598.9749451136914,include,include,0,0.041666666666666664,include,include,include
559109,58,other/missing/error,NA,NA,NA,NA,NA,NA,NA,NA,NA,6,5,6,3,5,6,6,5,6,4,4,4,6,4,6,3,3,1,2,4,1,1,4,1,1,NA,NA,NA,NA,NA,NA,NA,NA,NA,NA,include,include,4.25,5.333333333333333,1.875,NA,NA,include,-0.2801819300173648,922.35,799.0875,439.93736495555095,include,include,0,0.041666666666666664,include,include,include
548429,19,other/missing/error,5,5,4,6,5,5,5,3,5,NA,NA,NA,NA,NA,NA,NA,NA,NA,NA,NA,NA,NA,NA,NA,NA,NA,NA,NA,NA,NA,NA,NA,NA,NA,5,5,6,5,6,6,5,2,5,6,include,include,NA,NA,NA,4.777777777777778,5.1,include,-0.5782773092663892,963.875,708.075,442.34832648805025,include,include,0,0.016666666666666666,include,include,include
550775,17,other/missing/error,NA,NA,NA,NA,NA,NA,NA,NA,NA,5,2,5,3,2,4,5,5,2,6,3,4,4,2,5,2,5,3,4,5,5,4,5,5,5,NA,NA,NA,NA,NA,NA,NA,NA,NA,NA,include,include,3.875,3.6666666666666665,4.5,NA,NA,include,0.00222018130012127,744.325,744.9875,298.39905415099304,include,include,0,0,include,include,include
555831,18,other/missing/error,1,5,1,5,6,4,5,2,5,NA,NA,NA,NA,NA,NA,NA,NA,NA,NA,NA,NA,NA,NA,NA,NA,NA,NA,NA,NA,NA,NA,NA,NA,NA,5,6,6,5,6,5,6,3,4,6,include,include,NA,NA,NA,3.7777777777777777,5.2,include,-0.05553283664377391,640.35,629.125,202.1326602133608,include,include,0,0.05,include,include,include
557720,36,other/missing/error,NA,NA,NA,NA,NA,NA,NA,NA,NA,6,6,6,6,5,6,6,6,5,6,3,5,6,3,6,2,4,1,2,5,3,2,5,2,2,NA,NA,NA,NA,NA,NA,NA,NA,NA,NA,include,include,4.375,5.777777777777778,2.75,NA,NA,include,-0.6370685424386451,699.925,597.6125,160.59888879202276,include,include,0,0.041666666666666664,include,include,include
559640,28,other/missing/error,NA,NA,NA,NA,NA,NA,NA,NA,NA,6,5,6,5,4,6,5,4,4,3,3,2,5,2,6,3,4,3,2,5,4,1,3,1,2,NA,NA,NA,NA,NA,NA,NA,NA,NA,NA,include,include,3.5,5,2.625,NA,NA,include,-0.29154686082482634,1173.4,974.4375,682.4374628391048,include,include,0,0.08333333333333333,include,include,include
568128,39,other/missing/error,6,6,6,6,6,4,6,5,6,NA,NA,NA,NA,NA,NA,NA,NA,NA,NA,NA,NA,NA,NA,NA,NA,NA,NA,NA,NA,NA,NA,NA,NA,NA,6,4,4,4,6,6,6,6,4,6,include,include,NA,NA,NA,5.666666666666667,5.2,include,0.06618774434744112,724.7,755.1375,459.86610210228054,include,include,0,0.025,include,include,include
568742,21,other/missing/error,2,3,1,6,6,6,6,3,5,NA,NA,NA,NA,NA,NA,NA,NA,NA,NA,NA,NA,NA,NA,NA,NA,NA,NA,NA,NA,NA,NA,NA,NA,NA,6,4,4,5,1,5,4,1,5,6,include,include,NA,NA,NA,4.222222222222222,4.1,include,-0.47209614945344935,912.175,709.05,430.2619291327835,include,include,0,0.058333333333333334,include,include,include
575534,30,other/missing/error,NA,NA,NA,NA,NA,NA,NA,NA,NA,6,2,5,2,4,5,2,4,1,2,4,2,1,1,1,1,3,4,2,4,2,2,4,2,3,NA,NA,NA,NA,NA,NA,NA,NA,NA,NA,include,include,1.875,3.4444444444444446,2.875,NA,NA,include,-0.37267547271406826,1247.55,1024.7875,597.7385589067528,include,include,0,0.016666666666666666,include,include,include
578307,22,other/missing/error,5,6,5,6,5,5,6,6,4,NA,NA,NA,NA,NA,NA,NA,NA,NA,NA,NA,NA,NA,NA,NA,NA,NA,NA,NA,NA,NA,NA,NA,NA,NA,5,4,5,5,6,6,5,3,4,4,include,include,NA,NA,NA,5.333333333333333,4.7,include,0.14786295882070521,857.85,894.2222222222222,245.9860299855501,include,exclude,0,0,include,include,exclude
581474,22,other/missing/error,NA,NA,NA,NA,NA,NA,NA,NA,NA,6,6,6,6,3,5,6,6,3,4,1,2,1,3,5,3,4,3,2,4,5,1,2,2,1,NA,NA,NA,NA,NA,NA,NA,NA,NA,NA,include,include,2.875,5.222222222222222,2.5,NA,NA,include,0.06575681953643915,717,738.775,331.14436120094524,include,include,0,0.06666666666666667,include,include,include
593293,29,other/missing/error,5,5,6,6,1,5,6,3,6,NA,NA,NA,NA,NA,NA,NA,NA,NA,NA,NA,NA,NA,NA,NA,NA,NA,NA,NA,NA,NA,NA,NA,NA,NA,6,5,6,5,5,6,6,5,6,6,include,include,NA,NA,NA,4.777777777777778,5.6,include,-0.3829560865019542,998.95,809.5625,494.54103662361723,include,include,0,0.1,include,include,include
593817,22,other/missing/error,NA,NA,NA,NA,NA,NA,NA,NA,NA,6,5,6,3,5,6,5,6,4,5,3,5,5,4,5,3,5,4,3,6,4,2,5,3,4,NA,NA,NA,NA,NA,NA,NA,NA,NA,NA,include,include,4.375,5.111111111111111,3.875,NA,NA,include,-0.11267598036462857,1650.875,1449.65,1785.8730791497846,include,include,0,0.016666666666666666,include,include,include
597411,53,other/missing/error,5,6,6,6,5,6,5,1,6,NA,NA,NA,NA,NA,NA,NA,NA,NA,NA,NA,NA,NA,NA,NA,NA,NA,NA,NA,NA,NA,NA,NA,NA,NA,5,6,6,4,5,5,6,6,5,6,include,include,NA,NA,NA,5.111111111111111,5.4,include,-0.37809954068800566,953.275,794.725,419.33401905618763,include,include,0,0,include,include,include
627581,23,other/missing/error,3,5,5,5,5,3,4,4,5,NA,NA,NA,NA,NA,NA,NA,NA,NA,NA,NA,NA,NA,NA,NA,NA,NA,NA,NA,NA,NA,NA,NA,NA,NA,4,4,6,6,5,5,6,5,6,4,include,include,NA,NA,NA,4.333333333333333,5.1,include,0.2543831512118368,695.675,806.3125,434.92463818040767,include,include,0,0.03333333333333333,include,include,include
628624,21,other/missing/error,NA,NA,NA,NA,NA,NA,NA,NA,NA,6,6,6,6,5,6,6,6,5,5,3,5,5,5,1,2,5,1,1,1,1,2,6,1,1,NA,NA,NA,NA,NA,NA,NA,NA,NA,NA,include,include,3.875,5.777777777777778,1.75,NA,NA,include,0.15568918472062226,604,648.575,286.3076204039993,include,include,0,0.075,include,include,include
629563,42,other/missing/error,2,6,6,4,5,1,4,4,3,NA,NA,NA,NA,NA,NA,NA,NA,NA,NA,NA,NA,NA,NA,NA,NA,NA,NA,NA,NA,NA,NA,NA,NA,NA,6,2,2,1,4,4,2,3,5,2,include,include,NA,NA,NA,3.888888888888889,3.1,include,-0.2628886723635788,509,408.4625,382.43374693967496,include,include,0.4666666666666667,0.38333333333333336,exclude,include,exclude
630625,28,other/missing/error,3,4,6,4,5,3,3,4,6,NA,NA,NA,NA,NA,NA,NA,NA,NA,NA,NA,NA,NA,NA,NA,NA,NA,NA,NA,NA,NA,NA,NA,NA,NA,4,4,6,4,5,5,6,6,5,2,include,include,NA,NA,NA,4.222222222222222,4.7,include,-0.3106448099581133,930.625,807.2375,397.1980089306413,include,exclude,0,0.008333333333333333,include,include,exclude
643556,27,other/missing/error,NA,NA,NA,NA,NA,NA,NA,NA,NA,3,3,4,2,3,3,3,4,3,5,3,5,4,4,5,3,6,3,3,4,3,2,4,3,3,NA,NA,NA,NA,NA,NA,NA,NA,NA,NA,include,include,4.375,3.111111111111111,3.125,NA,NA,include,0.035883234467622024,682.925,696.2875,372.3883924693926,include,include,0.008333333333333333,0.058333333333333334,include,include,include
645951,20,other/missing/error,NA,NA,NA,NA,NA,NA,NA,NA,NA,6,4,6,5,5,6,6,5,4,5,2,5,5,1,5,1,4,4,2,6,5,3,6,3,5,NA,NA,NA,NA,NA,NA,NA,NA,NA,NA,include,include,3.5,5.222222222222222,4.25,NA,NA,include,-0.6495599338185443,901.675,655.6625,378.7371837326469,include,include,0,0.075,include,include,include
648762,19,other/missing/error,NA,NA,NA,NA,NA,NA,NA,NA,NA,6,5,6,5,5,6,5,5,5,5,5,5,5,5,4,3,5,2,3,4,5,2,5,2,5,NA,NA,NA,NA,NA,NA,NA,NA,NA,NA,include,include,4.625,5.333333333333333,3.5,NA,NA,include,-0.15926956513833918,719.05,646.9375,452.7701192463488,include,include,0.008333333333333333,0.1,include,include,include
652654,29,other/missing/error,2,5,4,6,4,3,4,3,4,NA,NA,NA,NA,NA,NA,NA,NA,NA,NA,NA,NA,NA,NA,NA,NA,NA,NA,NA,NA,NA,NA,NA,NA,NA,5,5,6,5,6,5,6,2,NA,4,include,exclude,NA,NA,NA,3.888888888888889,4.888888888888889,include,-0.40237078818396566,888.9,744.025,360.053473697406,include,include,0,0.041666666666666664,include,include,exclude
662985,15,other/missing/error,NA,NA,NA,NA,NA,NA,NA,NA,NA,5,5,6,3,6,6,6,5,3,5,3,6,5,3,4,2,4,1,3,4,2,2,4,2,3,NA,NA,NA,NA,NA,NA,NA,NA,NA,NA,include,include,4,5,2.625,NA,NA,include,-0.03585617399064203,594.325,587.3625,194.178553512631,include,include,0,0.09166666666666666,include,include,include
659647,51,other/missing/error,NA,NA,NA,NA,NA,NA,NA,NA,NA,5,2,3,1,1,1,2,5,1,4,3,3,5,4,4,2,5,2,5,5,4,3,6,2,3,NA,NA,NA,NA,NA,NA,NA,NA,NA,NA,include,include,3.75,2.3333333333333335,3.75,NA,NA,include,-0.06096644295121484,790.475,772.1625,300.37015632769663,include,include,0,0.016666666666666666,include,include,include
669471,26,other/missing/error,4,4,6,6,4,2,3,3,2,NA,NA,NA,NA,NA,NA,NA,NA,NA,NA,NA,NA,NA,NA,NA,NA,NA,NA,NA,NA,NA,NA,NA,NA,NA,3,3,4,4,3,4,4,3,5,3,include,include,NA,NA,NA,3.7777777777777777,3.6,include,-0.7191426089380248,1189.825,885.3375,423.4035033046423,include,include,0,0.05,include,include,include
201268,other/missing/error,other/missing/error,2,4,5,2,5,5,5,5,5,NA,NA,NA,NA,NA,NA,NA,NA,NA,NA,NA,NA,NA,NA,NA,NA,NA,NA,NA,NA,NA,NA,NA,NA,NA,6,5,5,6,6,6,4,1,3,5,include,include,NA,NA,NA,4.222222222222222,4.7,include,-0.8930059042496734,1053.775,659.9125,441.05251502332845,include,include,0,0.025,include,include,include
196719,other/missing/error,other/missing/error,NA,NA,NA,NA,NA,NA,NA,NA,NA,6,1,6,1,1,6,5,4,1,6,3,6,6,6,6,3,6,6,1,5,6,1,4,1,4,NA,NA,NA,NA,NA,NA,NA,NA,NA,NA,include,include,5.25,3.4444444444444446,3.5,NA,NA,include,0.1437617842219197,680.1,830.075,1043.2188276718186,include,include,0,0.025,include,include,include
194849,other/missing/error,other/missing/error,NA,NA,NA,NA,NA,NA,NA,NA,NA,6,2,6,2,3,4,5,5,2,6,4,5,5,4,6,3,5,3,4,5,6,3,4,2,4,NA,NA,NA,NA,NA,NA,NA,NA,NA,NA,include,include,4.75,3.888888888888889,3.875,NA,NA,include,-0.07057048040271043,742.575,726.3875,229.38061222803125,include,include,0,0.03333333333333333,include,include,include
193446,other/missing/error,other/missing/error,NA,NA,NA,NA,NA,NA,NA,NA,NA,6,6,6,5,6,6,5,5,3,2,3,5,6,3,6,2,4,2,2,4,4,2,1,2,2,NA,NA,NA,NA,NA,NA,NA,NA,NA,NA,include,include,3.875,5.333333333333333,2.375,NA,NA,include,-0.47125103256126566,1185.05,903.7625,596.895243860141,include,include,0,0.125,include,include,include
193083,other/missing/error,other/missing/error,NA,NA,NA,NA,NA,NA,NA,NA,NA,5,3,4,6,2,5,5,5,3,4,3,4,4,3,3,3,3,1,2,2,2,1,3,2,2,NA,NA,NA,NA,NA,NA,NA,NA,NA,NA,include,include,3.375,4.222222222222222,1.875,NA,NA,include,-0.4038564340452829,709.15,631.3125,192.7355699656189,include,include,0,0.11666666666666667,include,include,include
186334,other/missing/error,other/missing/error,NA,NA,NA,NA,NA,NA,NA,NA,NA,4,3,5,3,3,4,5,4,2,4,4,2,4,3,4,2,4,4,3,3,3,4,4,3,4,NA,NA,NA,NA,NA,NA,NA,NA,NA,NA,include,include,3.375,3.6666666666666665,3.5,NA,NA,include,-0.24094479559876042,580.9,530.7625,208.08708432736893,include,include,0,0.058333333333333334,include,include,include
181481,other/missing/error,other/missing/error,4,4,5,5,5,3,5,4,5,NA,NA,NA,NA,NA,NA,NA,NA,NA,NA,NA,NA,NA,NA,NA,NA,NA,NA,NA,NA,NA,NA,NA,NA,NA,3,3,4,4,3,3,4,4,4,3,include,include,NA,NA,NA,4.444444444444445,3.5,include,-0.4737166829890841,691.075,596.6125,199.4071633786577,include,include,0,0.05,include,include,include
180366,other/missing/error,other/missing/error,4,5,6,6,6,5,6,2,5,NA,NA,NA,NA,NA,NA,NA,NA,NA,NA,NA,NA,NA,NA,NA,NA,NA,NA,NA,NA,NA,NA,NA,NA,NA,5,5,1,4,6,6,1,4,6,6,include,include,NA,NA,NA,5,4.4,include,-0.8555132951765747,1392.775,849.5375,634.9842872843699,include,include,0,0.041666666666666664,include,include,include
179098,other/missing/error,other/missing/error,3,4,7,5,2,5,5,5,3,NA,NA,NA,NA,NA,NA,NA,NA,NA,NA,NA,NA,NA,NA,NA,NA,NA,NA,NA,NA,NA,NA,NA,NA,NA,5,0,6,3,6,7,5,6,7,5,exclude,include,NA,NA,NA,4.333333333333333,5,include,-0.021577490321570816,734.35,727.1125,335.41898951820207,include,include,0,0.03333333333333333,include,include,exclude
175558,other/missing/error,other/missing/error,NA,NA,NA,NA,NA,NA,NA,NA,NA,5,2,3,2,3,3,4,6,2,6,5,3,5,3,5,2,5,1,3,4,5,2,4,2,5,NA,NA,NA,NA,NA,NA,NA,NA,NA,NA,include,include,4.25,3.3333333333333335,3.25,NA,NA,include,-0.25868693117203456,983.625,866.4375,453.0089690617838,include,include,0,0.025,include,include,include
173471,other/missing/error,other/missing/error,5,4,3,5,4,4,5,3,6,NA,NA,NA,NA,NA,NA,NA,NA,NA,NA,NA,NA,NA,NA,NA,NA,NA,NA,NA,NA,NA,NA,NA,NA,NA,4,5,5,4,6,5,6,5,5,5,include,include,NA,NA,NA,4.333333333333333,5,include,-0.06490554093072069,711.975,696.3875,240.15669196313866,include,include,0,0.058333333333333334,include,include,include
173044,other/missing/error,other/missing/error,6,6,2,5,6,2,6,2,3,NA,NA,NA,NA,NA,NA,NA,NA,NA,NA,NA,NA,NA,NA,NA,NA,NA,NA,NA,NA,NA,NA,NA,NA,NA,6,5,6,6,6,6,6,6,6,6,include,include,NA,NA,NA,4.222222222222222,5.9,include,-0.270141734844213,819.725,681.4,512.0460193970774,include,include,0,0.10833333333333334,include,include,include
170731,other/missing/error,other/missing/error,2,6,5,5,5,3,5,6,6,NA,NA,NA,NA,NA,NA,NA,NA,NA,NA,NA,NA,NA,NA,NA,NA,NA,NA,NA,NA,NA,NA,NA,NA,NA,5,5,6,5,6,6,6,5,6,5,include,include,NA,NA,NA,4.777777777777778,5.5,include,-0.14757660815485485,1038.675,958.9125,540.4819977723276,include,include,0,0.05,include,include,include
164811,other/missing/error,other/missing/error,2,4,4,4,5,6,5,3,4,NA,NA,NA,NA,NA,NA,NA,NA,NA,NA,NA,NA,NA,NA,NA,NA,NA,NA,NA,NA,NA,NA,NA,NA,NA,5,6,6,6,6,5,5,4,4,6,include,include,NA,NA,NA,4.111111111111111,5.3,include,-0.3493339942069188,1082.425,813.475,769.8935816727143,include,include,0,0.15833333333333333,include,include,include
164203,other/missing/error,other/missing/error,NA,NA,NA,NA,NA,NA,NA,NA,NA,3,6,6,6,1,6,5,6,4,2,2,5,4,3,5,3,6,4,1,4,3,1,4,1,1,NA,NA,NA,NA,NA,NA,NA,NA,NA,NA,include,include,3.75,4.777777777777778,2.375,NA,NA,include,-0.08183536027665293,816.825,781.725,428.90994652361553,include,include,0,0.016666666666666666,include,include,include
163143,other/missing/error,other/missing/error,3,4,6,5,2,4,5,5,5,NA,NA,NA,NA,NA,NA,NA,NA,NA,NA,NA,NA,NA,NA,NA,NA,NA,NA,NA,NA,NA,NA,NA,NA,NA,1,1,4,4,3,1,3,2,3,1,include,include,NA,NA,NA,4.333333333333333,2.3,include,-0.7987010551234225,755.725,612.9875,178.7120463712709,include,include,0,0.03333333333333333,include,include,include
162402,other/missing/error,other/missing/error,1,5,2,6,1,1,1,1,5,NA,NA,NA,NA,NA,NA,NA,NA,NA,NA,NA,NA,NA,NA,NA,NA,NA,NA,NA,NA,NA,NA,NA,NA,NA,2,4,6,4,5,4,4,5,2,NA,include,exclude,NA,NA,NA,2.5555555555555554,4,include,-0.5459128851753557,2024.35,1258.9375,1402.0780985122517,include,include,0,0.06666666666666667,include,include,exclude
214776,48,other/missing/error,NA,NA,NA,NA,NA,NA,NA,NA,NA,6,3,6,2,3,5,6,3,4,4,3,3,5,3,4,4,5,2,2,4,2,1,4,1,3,NA,NA,NA,NA,NA,NA,NA,NA,NA,NA,include,include,3.875,4.222222222222222,2.375,NA,NA,include,-0.6816798776575259,1492.5,1035.3875,670.5676887086463,include,include,0,0.008333333333333333,include,include,include
233700,36,other/missing/error,3,5,3,4,4,3,4,1,4,NA,NA,NA,NA,NA,NA,NA,NA,NA,NA,NA,NA,NA,NA,NA,NA,NA,NA,NA,NA,NA,NA,NA,NA,NA,6,4,6,5,6,4,5,5,6,4,include,include,NA,NA,NA,3.4444444444444446,5.1,include,0.017512600253538728,1478.45,1544.675,3781.5629341860863,include,include,0,0.016666666666666666,include,include,include
246726,23,other/missing/error,5,5,6,6,6,6,6,5,5,NA,NA,NA,NA,NA,NA,NA,NA,NA,NA,NA,NA,NA,NA,NA,NA,NA,NA,NA,NA,NA,NA,NA,NA,NA,4,2,5,4,4,5,5,3,6,3,include,include,NA,NA,NA,5.555555555555555,4.1,include,0.019797623454788728,657.075,662.2,258.8694553012293,include,include,0,0.1,include,include,include
298159,29,other/missing/error,NA,NA,NA,NA,NA,NA,NA,NA,NA,5,6,5,3,4,4,4,5,3,4,2,4,6,3,5,6,6,2,3,1,1,1,6,2,4,NA,NA,NA,NA,NA,NA,NA,NA,NA,NA,include,include,4.5,4.333333333333333,2.5,NA,NA,include,-0.4998522705447529,1314.7,943.2,743.2195908505706,include,include,0,0.03333333333333333,include,include,include
343463,41,other/missing/error,3,5,5,4,5,3,6,5,5,NA,NA,NA,NA,NA,NA,NA,NA,NA,NA,NA,NA,NA,NA,NA,NA,NA,NA,NA,NA,NA,NA,NA,NA,NA,4,5,6,5,5,3,5,3,5,5,include,include,NA,NA,NA,4.555555555555555,4.6,include,-4.07347514848299e-4,579.925,579.8375,214.80430544068324,include,include,0,0.19166666666666668,include,include,include
343750,27,other/missing/error,3,4,5,5,5,3,5,4,5,NA,NA,NA,NA,NA,NA,NA,NA,NA,NA,NA,NA,NA,NA,NA,NA,NA,NA,NA,NA,NA,NA,NA,NA,NA,4,5,6,2,4,4,6,3,5,5,include,include,NA,NA,NA,4.333333333333333,4.4,include,-0.41546726684540813,780.025,669.35,266.38681030238945,include,include,0,0.008333333333333333,include,include,include
348917,31,other/missing/error,3,6,6,6,6,6,5,5,6,NA,NA,NA,NA,NA,NA,NA,NA,NA,NA,NA,NA,NA,NA,NA,NA,NA,NA,NA,NA,NA,NA,NA,NA,NA,5,5,6,4,6,4,6,6,5,6,include,include,NA,NA,NA,5.444444444444445,5.3,include,-0.4052272319438043,898.275,743.95,380.8357085473497,include,include,0,0.11666666666666667,include,include,include
350255,26,other/missing/error,3,5,5,6,1,4,6,6,6,NA,NA,NA,NA,NA,NA,NA,NA,NA,NA,NA,NA,NA,NA,NA,NA,NA,NA,NA,NA,NA,NA,NA,NA,NA,5,1,6,4,5,5,2,6,5,3,include,include,NA,NA,NA,4.666666666666667,4.2,include,-0.09869619937722879,910.05,874.25,362.72926643474926,include,include,0,0.09166666666666666,include,include,include
353512,42,other/missing/error,5,6,6,4,3,5,5,5,6,NA,NA,NA,NA,NA,NA,NA,NA,NA,NA,NA,NA,NA,NA,NA,NA,NA,NA,NA,NA,NA,NA,NA,NA,NA,6,6,6,6,6,6,6,6,6,6,include,include,NA,NA,NA,5,6,include,-0.5330126480838644,1232.55,924.0625,578.7620633562572,include,include,0,0.008333333333333333,include,include,include
360521,29,other/missing/error,4,6,3,6,6,3,6,3,6,NA,NA,NA,NA,NA,NA,NA,NA,NA,NA,NA,NA,NA,NA,NA,NA,NA,NA,NA,NA,NA,NA,NA,NA,NA,4,4,6,4,6,4,6,5,6,3,include,include,NA,NA,NA,4.777777777777778,4.8,include,-0.7838333095138804,1110.9,837.8125,348.39996806127584,include,include,0,0,include,include,include
450960,38,other/missing/error,NA,NA,NA,NA,NA,NA,NA,NA,NA,5,3,6,3,4,5,6,6,3,4,3,5,5,3,5,3,5,2,3,4,2,2,4,2,2,NA,NA,NA,NA,NA,NA,NA,NA,NA,NA,include,include,4.125,4.555555555555555,2.625,NA,NA,include,-0.019514516365081124,950.425,945.925,230.59756725778806,include,include,0,0.008333333333333333,include,include,include
453001,20,other/missing/error,6,6,5,6,6,6,5,4,6,NA,NA,NA,NA,NA,NA,NA,NA,NA,NA,NA,NA,NA,NA,NA,NA,NA,NA,NA,NA,NA,NA,NA,NA,NA,5,3,6,6,5,6,5,6,6,2,include,include,NA,NA,NA,5.555555555555555,5,include,0.013827372858432186,756.2,761.225,363.40959714090883,include,include,0,0.1,include,include,include
455618,25,other/missing/error,NA,NA,NA,NA,NA,NA,NA,NA,NA,4,4,4,6,6,2,4,2,1,3,1,4,6,1,1,1,1,3,4,6,6,1,2,6,5,NA,NA,NA,NA,NA,NA,NA,NA,NA,NA,include,include,2.25,3.6666666666666665,4.125,NA,NA,include,-0.8110064545926405,1030,690.55,418.5540054308224,include,include,0,0.058333333333333334,include,include,include
462128,44,other/missing/error,NA,NA,NA,NA,NA,NA,NA,NA,NA,5,3,6,3,3,3,5,5,2,5,5,1,4,4,5,3,5,2,3,4,5,2,4,1,4,NA,NA,NA,NA,NA,NA,NA,NA,NA,NA,include,include,4,3.888888888888889,3.125,NA,NA,include,0.05083688161432305,983.525,1006.9375,460.5416236507249,include,include,0,0.08333333333333333,include,include,include
526620,20,other/missing/error,NA,NA,NA,NA,NA,NA,NA,NA,NA,5,5,5,6,6,6,5,6,5,3,3,5,5,2,5,2,5,1,2,1,1,2,4,4,2,NA,NA,NA,NA,NA,NA,NA,NA,NA,NA,include,include,3.75,5.444444444444445,2.125,NA,NA,include,-0.46150095636505883,1133.75,856.4375,600.8925792574931,include,include,0,0.05,include,include,include
548565,23,other/missing/error,2,6,5,5,5,5,6,5,5,NA,NA,NA,NA,NA,NA,NA,NA,NA,NA,NA,NA,NA,NA,NA,NA,NA,NA,NA,NA,NA,NA,NA,NA,NA,4,5,5,4,5,2,5,3,4,5,include,include,NA,NA,NA,4.888888888888889,4.2,include,0.23877049657207414,686.375,775.125,371.6958387830397,include,include,0,0.025,include,include,include
558041,28,other/missing/error,NA,NA,NA,NA,NA,NA,NA,NA,NA,5,6,6,2,6,5,5,6,4,6,2,6,5,2,4,2,4,1,3,4,4,2,4,2,2,NA,NA,NA,NA,NA,NA,NA,NA,NA,NA,include,include,3.875,5,2.75,NA,NA,include,-0.6021688488072943,1440.2,1012.7375,709.8714934302362,include,include,0,0.008333333333333333,include,include,include
579249,54,other/missing/error,3,4,3,5,5,3,6,3,5,NA,NA,NA,NA,NA,NA,NA,NA,NA,NA,NA,NA,NA,NA,NA,NA,NA,NA,NA,NA,NA,NA,NA,NA,NA,4,4,5,4,4,4,5,2,4,5,include,include,NA,NA,NA,4.111111111111111,4.1,include,-0.09311720198617068,758.225,735.9625,239.08042257655427,include,include,0,0.03333333333333333,include,include,include
617893,42,other/missing/error,4,4,5,4,5,3,4,4,4,NA,NA,NA,NA,NA,NA,NA,NA,NA,NA,NA,NA,NA,NA,NA,NA,NA,NA,NA,NA,NA,NA,NA,NA,NA,4,3,5,5,4,5,3,3,4,2,include,include,NA,NA,NA,4.111111111111111,3.8,include,-0.4782526292418027,789.15,689.3875,208.5979122752724,include,include,0,0.025,include,include,include
634062,32,other/missing/error,3,NA,6,5,4,5,5,5,5,NA,NA,NA,NA,NA,NA,NA,NA,NA,NA,NA,NA,NA,NA,NA,NA,NA,NA,NA,NA,NA,NA,NA,NA,NA,6,3,5,6,5,5,4,2,6,5,include,exclude,NA,NA,NA,4.75,4.7,include,0.23820750336895022,676.025,770.35,395.9782906330359,include,include,0,0.06666666666666667,include,include,exclude
652538,35,other/missing/error,NA,NA,NA,NA,NA,NA,NA,NA,NA,5,3,7,3,3,6,5,5,2,5,3,5,7,2,5,2,5,4,2,5,5,2,4,2,5,NA,NA,NA,NA,NA,NA,NA,NA,NA,NA,exclude,include,4.25,4.333333333333333,3.625,NA,NA,include,-0.22169889784781666,1467.8,1212.1625,1153.0842168438755,include,include,0,0.175,include,include,exclude
668486,22,other/missing/error,NA,NA,NA,NA,NA,NA,NA,NA,NA,5,2,5,3,3,4,4,4,5,3,2,5,5,3,6,3,4,4,3,5,3,4,3,3,3,NA,NA,NA,NA,NA,NA,NA,NA,NA,NA,include,include,3.875,3.888888888888889,3.5,NA,NA,include,-0.32860879018867306,781.4,695.925,260.11172723323665,include,include,0,0.16666666666666666,include,include,include
664326,46,other/missing/error,NA,NA,NA,NA,NA,NA,NA,NA,NA,6,4,6,2,2,6,5,6,5,3,3,4,4,3,5,3,3,2,1,3,3,2,6,1,3,NA,NA,NA,NA,NA,NA,NA,NA,NA,NA,include,include,3.5,4.666666666666667,2.625,NA,NA,include,-0.8045319112996163,910.825,661.5,309.90069691237983,include,include,0,0.08333333333333333,include,include,include
194648,other/missing/error,other/missing/error,3,5,6,6,5,5,5,3,6,NA,NA,NA,NA,NA,NA,NA,NA,NA,NA,NA,NA,NA,NA,NA,NA,NA,NA,NA,NA,NA,NA,NA,NA,NA,5,4,6,5,6,4,4,2,5,5,include,include,NA,NA,NA,4.888888888888889,4.6,include,-0.15610907491612885,575.325,536.325,249.8253225890496,include,include,0,0.058333333333333334,include,include,include
173703,other/missing/error,other/missing/error,NA,NA,NA,NA,NA,NA,NA,NA,NA,6,2,5,2,3,5,5,5,4,5,4,6,6,6,6,4,6,2,2,3,2,1,4,2,3,NA,NA,NA,NA,NA,NA,NA,NA,NA,NA,include,include,5.375,4.111111111111111,2.375,NA,NA,include,-0.49194056073118153,1305.7,951.9625,719.065529937667,include,include,0,0.016666666666666666,include,include,include
167754,other/missing/error,other/missing/error,5,4,6,5,6,5,4,3,6,NA,NA,NA,NA,NA,NA,NA,NA,NA,NA,NA,NA,NA,NA,NA,NA,NA,NA,NA,NA,NA,NA,NA,NA,NA,5,4,6,5,5,4,6,6,6,5,include,include,NA,NA,NA,4.888888888888889,5.2,include,-0.32824782819933085,775.8,714.3728813559322,187.1364053832084,include,exclude,0,0.010101010101010102,include,include,exclude
501196,16,other/missing/error,3,4,4,3,5,2,4,5,4,NA,NA,NA,NA,NA,NA,NA,NA,NA,NA,NA,NA,NA,NA,NA,NA,NA,NA,NA,NA,NA,NA,NA,NA,NA,4,5,6,5,5,4,4,4,5,4,include,include,NA,NA,NA,3.7777777777777777,4.6,include,0.3377239109182519,647.65,716.7625,204.6420101321436,include,include,0,0.025,include,include,include
217118,21,other/missing/error,NA,NA,NA,NA,NA,NA,NA,NA,NA,4,4,5,3,1,5,2,5,1,5,5,5,5,4,5,3,5,2,1,3,1,1,1,1,3,NA,NA,NA,NA,NA,NA,NA,NA,NA,NA,include,include,4.625,3.3333333333333335,1.625,NA,NA,include,-0.3022042518375532,842.7,739.6375,341.0359032784231,include,include,0,0.016666666666666666,include,include,include
217597,25,other/missing/error,3,4,3,4,4,5,4,3,4,NA,NA,NA,NA,NA,NA,NA,NA,NA,NA,NA,NA,NA,NA,NA,NA,NA,NA,NA,NA,NA,NA,NA,NA,NA,4,4,5,4,3,4,4,3,4,4,include,include,NA,NA,NA,3.7777777777777777,3.9,include,-0.05300450399451846,516.15,505.8625,194.0872798482156,include,include,0,0.058333333333333334,include,include,include
309503,22,other/missing/error,NA,NA,NA,NA,NA,NA,NA,NA,NA,5,5,5,2,4,5,5,4,5,3,3,3,4,2,3,2,3,4,2,2,4,2,2,2,4,NA,NA,NA,NA,NA,NA,NA,NA,NA,NA,include,include,2.875,4.444444444444445,2.75,NA,NA,include,-0.3662343963517668,731.375,640.85,247.17776621137205,include,include,0,0.016666666666666666,include,include,include
311846,58,other/missing/error,NA,NA,NA,NA,NA,NA,NA,NA,NA,5,6,5,6,5,6,1,5,2,1,1,3,5,1,5,1,4,5,2,5,4,1,5,2,4,NA,NA,NA,NA,NA,NA,NA,NA,NA,NA,include,include,2.625,4.555555555555555,3.5,NA,NA,include,-0.6734734938000263,1385.6,1038.9125,514.7752705809406,include,include,0,0,include,include,include
340489,17,other/missing/error,4,4,5,5,4,3,4,4,5,NA,NA,NA,NA,NA,NA,NA,NA,NA,NA,NA,NA,NA,NA,NA,NA,NA,NA,NA,NA,NA,NA,NA,NA,NA,3,3,5,3,4,3,5,5,5,5,include,include,NA,NA,NA,4.222222222222222,4.1,include,-0.22253724492746507,661.875,588.675,328.9337028678468,include,include,0,0.058333333333333334,include,include,include
353222,29,other/missing/error,1,5,3,2,6,5,5,2,5,NA,NA,NA,NA,NA,NA,NA,NA,NA,NA,NA,NA,NA,NA,NA,NA,NA,NA,NA,NA,NA,NA,NA,NA,NA,2,4,5,1,2,3,5,3,3,2,include,include,NA,NA,NA,3.7777777777777777,3,include,-0.45137613400176974,934.925,777.2625,349.2929468871337,include,include,0,0.016666666666666666,include,include,include
393892,18,other/missing/error,4,4,5,4,6,3,5,4,4,NA,NA,NA,NA,NA,NA,NA,NA,NA,NA,NA,NA,NA,NA,NA,NA,NA,NA,NA,NA,NA,NA,NA,NA,NA,5,3,5,6,5,5,4,4,5,5,include,include,NA,NA,NA,4.333333333333333,4.7,include,-0.5587236523792488,822.425,705.95,208.46620597500558,include,include,0,0.05,include,include,include
395088,33,other/missing/error,NA,NA,NA,NA,NA,NA,NA,NA,NA,6,5,6,5,2,5,6,5,2,5,2,4,4,5,6,5,2,1,2,4,4,5,4,2,1,NA,NA,NA,NA,NA,NA,NA,NA,NA,NA,include,include,4.125,4.666666666666667,2.875,NA,NA,include,-0.162385255622307,1282.025,1143.7,851.8322643881605,include,include,0,0.03333333333333333,include,include,include
440645,27,other/missing/error,NA,NA,NA,NA,NA,NA,NA,NA,NA,5,5,6,6,5,5,5,5,4,5,5,4,5,5,6,5,5,2,3,4,4,1,2,2,4,NA,NA,NA,NA,NA,NA,NA,NA,NA,NA,include,include,5,5.111111111111111,2.75,NA,NA,include,-0.7928042089354562,1418.625,738.1875,858.2667603564599,include,include,0,0.075,include,include,include
448235,39,other/missing/error,1,6,6,1,2,1,3,2,6,NA,NA,NA,NA,NA,NA,NA,NA,NA,NA,NA,NA,NA,NA,NA,NA,NA,NA,NA,NA,NA,NA,NA,NA,NA,6,5,6,6,6,6,5,6,6,6,include,include,NA,NA,NA,3.111111111111111,5.8,include,-0.5571357905158656,1300.5,932.9875,659.6461872602212,include,include,0,0.1,include,include,include
460603,32,other/missing/error,NA,NA,NA,NA,NA,NA,NA,NA,NA,6,4,6,5,5,6,6,4,5,2,1,5,5,1,5,1,2,2,2,4,5,2,4,3,3,NA,NA,NA,NA,NA,NA,NA,NA,NA,NA,include,include,2.75,5.222222222222222,3.125,NA,NA,include,-0.1391252897871939,705.125,677.975,195.14784149976347,include,include,0,0.03333333333333333,include,include,include
497745,18,other/missing/error,NA,NA,NA,NA,NA,NA,NA,NA,NA,4,2,5,4,2,3,3,3,3,4,3,5,4,3,4,3,5,1,3,3,3,2,5,4,3,NA,NA,NA,NA,NA,NA,NA,NA,NA,NA,include,include,3.875,3.2222222222222223,3,NA,NA,include,-0.028652707018523706,904.7,894.5625,353.8060118873322,include,include,0,0.21666666666666667,include,include,include
505557,44,other/missing/error,1,6,3,1,1,6,4,3,6,NA,NA,NA,NA,NA,NA,NA,NA,NA,NA,NA,NA,NA,NA,NA,NA,NA,NA,NA,NA,NA,NA,NA,NA,NA,4,1,4,6,4,6,6,4,6,1,include,include,NA,NA,NA,3.4444444444444446,4.2,include,-0.1450268163912369,757.925,728.3875,203.66922983620483,include,include,0,0.09166666666666666,include,include,include
523839,28,other/missing/error,4,6,6,6,5,6,6,5,6,NA,NA,NA,NA,NA,NA,NA,NA,NA,NA,NA,NA,NA,NA,NA,NA,NA,NA,NA,NA,NA,NA,NA,NA,NA,6,2,6,4,6,4,3,6,4,4,include,include,NA,NA,NA,5.555555555555555,4.5,include,0.09045976133369878,864.425,900.2125,395.61789100883004,include,include,0,0.075,include,include,include
549211,48,other/missing/error,NA,NA,NA,NA,NA,NA,NA,NA,NA,2,5,2,3,5,5,5,2,5,5,5,5,6,5,5,1,5,6,5,5,4,2,2,1,6,NA,NA,NA,NA,NA,NA,NA,NA,NA,NA,include,include,4.625,3.7777777777777777,3.875,NA,NA,include,-0.9486433750195105,1138.875,772.6875,386.011761261147,include,include,0,0.05,include,include,include
596741,62,other/missing/error,NA,NA,NA,NA,NA,NA,NA,NA,NA,6,2,4,3,3,3,3,4,4,6,4,6,5,2,4,2,6,5,3,5,5,2,4,3,3,NA,NA,NA,NA,NA,NA,NA,NA,NA,NA,include,include,4.375,3.5555555555555554,3.75,NA,NA,include,-0.5946124849248923,1364.75,809.3375,934.0747362042965,include,include,0,0.041666666666666664,include,include,include
628838,18,other/missing/error,NA,NA,NA,NA,NA,NA,NA,NA,NA,4,2,5,3,2,4,4,4,2,3,3,3,4,2,3,2,2,4,4,5,5,3,5,4,5,NA,NA,NA,NA,NA,NA,NA,NA,NA,NA,include,include,2.75,3.3333333333333335,4.375,NA,NA,include,-0.5521736491406737,845.2,668.7625,319.53263303053814,include,include,0,0.03333333333333333,include,include,include
648950,32,other/missing/error,3,6,5,5,0,5,6,5,5,NA,NA,NA,NA,NA,NA,NA,NA,NA,NA,NA,NA,NA,NA,NA,NA,NA,NA,NA,NA,NA,NA,NA,NA,NA,5,5,0,5,3,4,5,4,5,7,exclude,include,NA,NA,NA,4.444444444444445,4.3,include,-0.5147517220017579,1159.575,930.4625,445.09321719028196,include,include,0,0.03333333333333333,include,include,exclude
199840,other/missing/error,other/missing/error,2,5,3,2,2,4,3,2,4,NA,NA,NA,NA,NA,NA,NA,NA,NA,NA,NA,NA,NA,NA,NA,NA,NA,NA,NA,NA,NA,NA,NA,NA,NA,5,5,6,5,5,5,4,4,5,6,include,include,NA,NA,NA,3,5,include,-0.4589426340007681,1021.725,849.8875,374.42043355621735,include,include,0,0.06666666666666667,include,include,include
199166,other/missing/error,other/missing/error,3,4,5,6,4,6,4,2,6,NA,NA,NA,NA,NA,NA,NA,NA,NA,NA,NA,NA,NA,NA,NA,NA,NA,NA,NA,NA,NA,NA,NA,NA,NA,5,5,6,5,6,6,6,5,4,6,include,include,NA,NA,NA,4.444444444444445,5.4,include,-0.6471608401336943,1109.725,748.4875,558.1881312926372,include,include,0,0.06666666666666667,include,include,include
195431,other/missing/error,other/missing/error,2,3,5,2,3,3,2,4,2,NA,NA,NA,NA,NA,NA,NA,NA,NA,NA,NA,NA,NA,NA,NA,NA,NA,NA,NA,NA,NA,NA,NA,NA,NA,3,5,5,6,3,3,4,4,6,2,include,include,NA,NA,NA,2.888888888888889,4.1,include,-0.49873143978273043,887.925,698.05,380.7159221458306,include,include,0,0.075,include,include,include
183947,other/missing/error,other/missing/error,NA,NA,NA,NA,NA,NA,NA,NA,NA,6,6,6,6,1,6,2,6,NA,6,3,1,3,2,5,4,1,4,1,4,1,6,2,1,4,NA,NA,NA,NA,NA,NA,NA,NA,NA,NA,include,include,3.125,4.875,2.875,NA,NA,include,-0.5879647901605347,891.375,683.6125,353.35874439568687,include,include,0,0.041666666666666664,include,include,include
179074,other/missing/error,other/missing/error,NA,NA,NA,NA,NA,NA,NA,NA,NA,2,1,3,4,3,6,6,5,1,3,6,5,5,4,3,2,1,1,1,5,2,2,2,1,5,NA,NA,NA,NA,NA,NA,NA,NA,NA,NA,include,include,3.625,3.4444444444444446,2.375,NA,NA,include,-0.0039028381117444497,560.85,560.0875,195.37064519932937,include,include,0,0.075,include,include,include
164311,other/missing/error,other/missing/error,NA,NA,NA,NA,NA,NA,NA,NA,NA,6,5,6,6,6,6,6,6,6,6,5,5,5,5,6,3,6,1,2,5,2,1,2,2,2,NA,NA,NA,NA,NA,NA,NA,NA,NA,NA,include,include,5.125,5.888888888888889,2.125,NA,NA,include,-0.3606155472445754,902.8,764.025,384.828111434365,include,include,0,0.025,include,include,include
563894,28,other/missing/error,NA,NA,NA,NA,NA,NA,NA,NA,NA,NA,NA,NA,NA,NA,NA,NA,NA,NA,NA,NA,NA,NA,NA,NA,NA,NA,NA,NA,NA,NA,NA,NA,NA,NA,NA,NA,NA,NA,NA,NA,NA,NA,NA,NA,NA,NA,NA,NA,NA,NA,NA,NA,NA,NA,NA,NA,NA,NA,NA,NA,NA,include,exclude
504354,21,other/missing/error,NA,NA,NA,NA,NA,NA,NA,NA,NA,NA,NA,NA,NA,NA,NA,NA,NA,NA,NA,NA,NA,NA,NA,NA,NA,NA,NA,NA,NA,NA,NA,NA,NA,NA,NA,NA,NA,NA,NA,NA,NA,NA,NA,NA,NA,NA,NA,NA,NA,NA,NA,NA,NA,NA,NA,NA,NA,NA,NA,NA,NA,include,exclude
470307,other/missing/error,f,NA,NA,NA,NA,NA,NA,NA,NA,NA,NA,NA,NA,NA,NA,NA,NA,NA,NA,NA,NA,NA,NA,NA,NA,NA,NA,NA,NA,NA,NA,NA,NA,NA,NA,NA,NA,NA,NA,NA,NA,NA,NA,NA,NA,NA,NA,NA,NA,NA,NA,NA,NA,NA,NA,NA,NA,NA,NA,NA,NA,NA,include,exclude
341410,other/missing/error,f,NA,NA,NA,NA,NA,NA,NA,NA,NA,NA,NA,NA,NA,NA,NA,NA,NA,NA,NA,NA,NA,NA,NA,NA,NA,NA,NA,NA,NA,NA,NA,NA,NA,NA,NA,NA,NA,NA,NA,NA,NA,NA,NA,NA,NA,NA,NA,NA,NA,NA,NA,NA,NA,NA,NA,NA,NA,NA,NA,NA,NA,include,exclude
611186,22,other/missing/error,NA,NA,NA,NA,NA,NA,NA,NA,NA,NA,NA,NA,NA,NA,NA,NA,NA,NA,NA,NA,NA,NA,NA,NA,NA,NA,NA,NA,NA,NA,NA,NA,NA,NA,NA,NA,NA,NA,NA,NA,NA,NA,NA,NA,NA,NA,NA,NA,NA,NA,NA,NA,NA,NA,NA,NA,NA,NA,NA,NA,NA,include,exclude
460641,other/missing/error,f,NA,NA,NA,NA,NA,NA,NA,NA,NA,NA,NA,NA,NA,NA,NA,NA,NA,NA,NA,NA,NA,NA,NA,NA,NA,NA,NA,NA,NA,NA,NA,NA,NA,NA,NA,NA,NA,NA,NA,NA,NA,NA,NA,NA,NA,NA,NA,NA,NA,NA,NA,NA,NA,NA,NA,NA,NA,NA,NA,NA,NA,include,exclude
604610,24,other/missing/error,NA,NA,NA,NA,NA,NA,NA,NA,NA,NA,NA,NA,NA,NA,NA,NA,NA,NA,NA,NA,NA,NA,NA,NA,NA,NA,NA,NA,NA,NA,NA,NA,NA,NA,NA,NA,NA,NA,NA,NA,NA,NA,NA,NA,NA,NA,NA,NA,NA,NA,NA,NA,NA,NA,NA,NA,NA,NA,NA,NA,NA,include,exclude
261108,28,other/missing/error,NA,NA,NA,NA,NA,NA,NA,NA,NA,NA,NA,NA,NA,NA,NA,NA,NA,NA,NA,NA,NA,NA,NA,NA,NA,NA,NA,NA,NA,NA,NA,NA,NA,NA,NA,NA,NA,NA,NA,NA,NA,NA,NA,NA,NA,NA,NA,NA,NA,NA,NA,NA,NA,NA,NA,NA,NA,NA,NA,NA,NA,include,exclude
355441,27,other/missing/error,NA,NA,NA,NA,NA,NA,NA,NA,NA,NA,NA,NA,NA,NA,NA,NA,NA,NA,NA,NA,NA,NA,NA,NA,NA,NA,NA,NA,NA,NA,NA,NA,NA,NA,NA,NA,NA,NA,NA,NA,NA,NA,NA,NA,NA,NA,NA,NA,NA,NA,NA,NA,NA,NA,NA,NA,NA,NA,NA,NA,NA,include,exclude
308712,36,other/missing/error,NA,NA,NA,NA,NA,NA,NA,NA,NA,NA,NA,NA,NA,NA,NA,NA,NA,NA,NA,NA,NA,NA,NA,NA,NA,NA,NA,NA,NA,NA,NA,NA,NA,NA,NA,NA,NA,NA,NA,NA,NA,NA,NA,NA,NA,NA,NA,NA,NA,NA,NA,NA,NA,NA,NA,NA,NA,NA,NA,NA,NA,include,exclude
108132,other/missing/error,other/missing/error,NA,NA,NA,NA,NA,NA,NA,NA,NA,NA,NA,NA,NA,NA,NA,NA,NA,NA,NA,NA,NA,NA,NA,NA,NA,NA,NA,NA,NA,NA,NA,NA,NA,NA,NA,NA,NA,NA,NA,NA,NA,NA,NA,NA,NA,NA,NA,NA,NA,NA,NA,NA,NA,NA,NA,NA,NA,NA,NA,NA,NA,include,exclude
498423,39,other/missing/error,NA,NA,NA,NA,NA,NA,NA,NA,NA,NA,NA,NA,NA,NA,NA,NA,NA,NA,NA,NA,NA,NA,NA,NA,NA,NA,NA,NA,NA,NA,NA,NA,NA,NA,NA,NA,NA,NA,NA,NA,NA,NA,NA,NA,NA,NA,NA,NA,NA,NA,NA,NA,NA,NA,NA,NA,NA,NA,NA,NA,NA,include,exclude
567321,16,other/missing/error,NA,NA,NA,NA,NA,NA,NA,NA,NA,NA,NA,NA,NA,NA,NA,NA,NA,NA,NA,NA,NA,NA,NA,NA,NA,NA,NA,NA,NA,NA,NA,NA,NA,NA,NA,NA,NA,NA,NA,NA,NA,NA,NA,NA,NA,NA,NA,NA,NA,NA,NA,NA,NA,NA,NA,NA,NA,NA,NA,NA,NA,include,exclude
175356,other/missing/error,other/missing/error,NA,NA,NA,NA,NA,NA,NA,NA,NA,NA,NA,NA,NA,NA,NA,NA,NA,NA,NA,NA,NA,NA,NA,NA,NA,NA,NA,NA,NA,NA,NA,NA,NA,NA,NA,NA,NA,NA,NA,NA,NA,NA,NA,NA,NA,NA,NA,NA,NA,NA,NA,NA,NA,NA,NA,NA,NA,NA,NA,NA,NA,include,exclude
94165,other/missing/error,other/missing/error,NA,NA,NA,NA,NA,NA,NA,NA,NA,NA,NA,NA,NA,NA,NA,NA,NA,NA,NA,NA,NA,NA,NA,NA,NA,NA,NA,NA,NA,NA,NA,NA,NA,NA,NA,NA,NA,NA,NA,NA,NA,NA,NA,NA,NA,NA,NA,NA,NA,NA,NA,NA,NA,NA,NA,NA,NA,NA,NA,NA,NA,include,exclude
674100,other/missing/error,f,NA,NA,NA,NA,NA,NA,NA,NA,NA,NA,NA,NA,NA,NA,NA,NA,NA,NA,NA,NA,NA,NA,NA,NA,NA,NA,NA,NA,NA,NA,NA,NA,NA,NA,NA,NA,NA,NA,NA,NA,NA,NA,NA,NA,NA,NA,NA,NA,NA,NA,NA,NA,NA,NA,NA,NA,NA,NA,NA,NA,NA,include,exclude
337704,26,other/missing/error,NA,NA,NA,NA,NA,NA,NA,NA,NA,NA,NA,NA,NA,NA,NA,NA,NA,NA,NA,NA,NA,NA,NA,NA,NA,NA,NA,NA,NA,NA,NA,NA,NA,NA,NA,NA,NA,NA,NA,NA,NA,NA,NA,NA,NA,NA,NA,NA,NA,NA,NA,NA,NA,NA,NA,NA,NA,NA,NA,NA,NA,include,exclude
569198,52,other/missing/error,NA,NA,NA,NA,NA,NA,NA,NA,NA,NA,NA,NA,NA,NA,NA,NA,NA,NA,NA,NA,NA,NA,NA,NA,NA,NA,NA,NA,NA,NA,NA,NA,NA,NA,NA,NA,NA,NA,NA,NA,NA,NA,NA,NA,NA,NA,NA,NA,NA,NA,NA,NA,NA,NA,NA,NA,NA,NA,NA,NA,NA,include,exclude
382844,other/missing/error,f,NA,NA,NA,NA,NA,NA,NA,NA,NA,NA,NA,NA,NA,NA,NA,NA,NA,NA,NA,NA,NA,NA,NA,NA,NA,NA,NA,NA,NA,NA,NA,NA,NA,NA,NA,NA,NA,NA,NA,NA,NA,NA,NA,NA,NA,NA,NA,NA,NA,NA,NA,NA,NA,NA,NA,NA,NA,NA,NA,NA,NA,include,exclude
342806,29,other/missing/error,NA,NA,NA,NA,NA,NA,NA,NA,NA,NA,NA,NA,NA,NA,NA,NA,NA,NA,NA,NA,NA,NA,NA,NA,NA,NA,NA,NA,NA,NA,NA,NA,NA,NA,NA,NA,NA,NA,NA,NA,NA,NA,NA,NA,NA,NA,NA,NA,NA,NA,NA,NA,NA,NA,NA,NA,NA,NA,NA,NA,NA,include,exclude
166328,other/missing/error,other/missing/error,NA,NA,NA,NA,NA,NA,NA,NA,NA,NA,NA,NA,NA,NA,NA,NA,NA,NA,NA,NA,NA,NA,NA,NA,NA,NA,NA,NA,NA,NA,NA,NA,NA,NA,NA,NA,NA,NA,NA,NA,NA,NA,NA,NA,NA,NA,NA,NA,NA,NA,NA,NA,NA,NA,NA,NA,NA,NA,NA,NA,NA,include,exclude
130056,other/missing/error,other/missing/error,NA,NA,NA,NA,NA,NA,NA,NA,NA,NA,NA,NA,NA,NA,NA,NA,NA,NA,NA,NA,NA,NA,NA,NA,NA,NA,NA,NA,NA,NA,NA,NA,NA,NA,NA,NA,NA,NA,NA,NA,NA,NA,NA,NA,NA,NA,NA,NA,NA,NA,NA,NA,NA,NA,NA,NA,NA,NA,NA,NA,NA,include,exclude
511210,24,other/missing/error,NA,NA,NA,NA,NA,NA,NA,NA,NA,NA,NA,NA,NA,NA,NA,NA,NA,NA,NA,NA,NA,NA,NA,NA,NA,NA,NA,NA,NA,NA,NA,NA,NA,NA,NA,NA,NA,NA,NA,NA,NA,NA,NA,NA,NA,NA,NA,NA,NA,NA,NA,NA,NA,NA,NA,NA,NA,NA,NA,NA,NA,include,exclude
164230,other/missing/error,other/missing/error,NA,NA,NA,NA,NA,NA,NA,NA,NA,NA,NA,NA,NA,NA,NA,NA,NA,NA,NA,NA,NA,NA,NA,NA,NA,NA,NA,NA,NA,NA,NA,NA,NA,NA,NA,NA,NA,NA,NA,NA,NA,NA,NA,NA,NA,NA,NA,NA,NA,NA,NA,NA,NA,NA,NA,NA,NA,NA,NA,NA,NA,include,exclude
252606,other/missing/error,m,NA,NA,NA,NA,NA,NA,NA,NA,NA,NA,NA,NA,NA,NA,NA,NA,NA,NA,NA,NA,NA,NA,NA,NA,NA,NA,NA,NA,NA,NA,NA,NA,NA,NA,NA,NA,NA,NA,NA,NA,NA,NA,NA,NA,NA,NA,NA,NA,NA,NA,NA,NA,NA,NA,NA,NA,NA,NA,NA,NA,NA,include,exclude
457996,other/missing/error,other/missing/error,NA,NA,NA,NA,NA,NA,NA,NA,NA,NA,NA,NA,NA,NA,NA,NA,NA,NA,NA,NA,NA,NA,NA,NA,NA,NA,NA,NA,NA,NA,NA,NA,NA,NA,NA,NA,NA,NA,NA,NA,NA,NA,NA,NA,NA,NA,NA,NA,NA,NA,NA,NA,NA,NA,NA,NA,NA,NA,NA,NA,NA,include,exclude
286261,28,other/missing/error,NA,NA,NA,NA,NA,NA,NA,NA,NA,NA,NA,NA,NA,NA,NA,NA,NA,NA,NA,NA,NA,NA,NA,NA,NA,NA,NA,NA,NA,NA,NA,NA,NA,NA,NA,NA,NA,NA,NA,NA,NA,NA,NA,NA,NA,NA,NA,NA,NA,NA,NA,NA,NA,NA,NA,NA,NA,NA,NA,NA,NA,include,exclude
321335,other/missing/error,m,NA,NA,NA,NA,NA,NA,NA,NA,NA,NA,NA,NA,NA,NA,NA,NA,NA,NA,NA,NA,NA,NA,NA,NA,NA,NA,NA,NA,NA,NA,NA,NA,NA,NA,NA,NA,NA,NA,NA,NA,NA,NA,NA,NA,NA,NA,NA,NA,NA,NA,NA,NA,NA,NA,NA,NA,NA,NA,NA,NA,NA,include,exclude
189542,other/missing/error,other/missing/error,NA,NA,NA,NA,NA,NA,NA,NA,NA,NA,NA,NA,NA,NA,NA,NA,NA,NA,NA,NA,NA,NA,NA,NA,NA,NA,NA,NA,NA,NA,NA,NA,NA,NA,NA,NA,NA,NA,NA,NA,NA,NA,NA,NA,NA,NA,NA,NA,NA,NA,NA,NA,NA,NA,NA,NA,NA,NA,NA,NA,NA,include,exclude
322866,other/missing/error,m,NA,NA,NA,NA,NA,NA,NA,NA,NA,NA,NA,NA,NA,NA,NA,NA,NA,NA,NA,NA,NA,NA,NA,NA,NA,NA,NA,NA,NA,NA,NA,NA,NA,NA,NA,NA,NA,NA,NA,NA,NA,NA,NA,NA,NA,NA,NA,NA,NA,NA,NA,NA,NA,NA,NA,NA,NA,NA,NA,NA,NA,include,exclude
170987,other/missing/error,other/missing/error,NA,NA,NA,NA,NA,NA,NA,NA,NA,NA,NA,NA,NA,NA,NA,NA,NA,NA,NA,NA,NA,NA,NA,NA,NA,NA,NA,NA,NA,NA,NA,NA,NA,NA,NA,NA,NA,NA,NA,NA,NA,NA,NA,NA,NA,NA,NA,NA,NA,NA,NA,NA,NA,NA,NA,NA,NA,NA,NA,NA,NA,include,exclude
127637,other/missing/error,other/missing/error,NA,NA,NA,NA,NA,NA,NA,NA,NA,NA,NA,NA,NA,NA,NA,NA,NA,NA,NA,NA,NA,NA,NA,NA,NA,NA,NA,NA,NA,NA,NA,NA,NA,NA,NA,NA,NA,NA,NA,NA,NA,NA,NA,NA,NA,NA,NA,NA,NA,NA,NA,NA,NA,NA,NA,NA,NA,NA,NA,NA,NA,include,exclude
93399,other/missing/error,other/missing/error,NA,NA,NA,NA,NA,NA,NA,NA,NA,NA,NA,NA,NA,NA,NA,NA,NA,NA,NA,NA,NA,NA,NA,NA,NA,NA,NA,NA,NA,NA,NA,NA,NA,NA,NA,NA,NA,NA,NA,NA,NA,NA,NA,NA,NA,NA,NA,NA,NA,NA,NA,NA,NA,NA,NA,NA,NA,NA,NA,NA,NA,include,exclude
584902,other/missing/error,f,NA,NA,NA,NA,NA,NA,NA,NA,NA,NA,NA,NA,NA,NA,NA,NA,NA,NA,NA,NA,NA,NA,NA,NA,NA,NA,NA,NA,NA,NA,NA,NA,NA,NA,NA,NA,NA,NA,NA,NA,NA,NA,NA,NA,NA,NA,NA,NA,NA,NA,NA,NA,NA,NA,NA,NA,NA,NA,NA,NA,NA,include,exclude
251550,57,other/missing/error,NA,NA,NA,NA,NA,NA,NA,NA,NA,NA,NA,NA,NA,NA,NA,NA,NA,NA,NA,NA,NA,NA,NA,NA,NA,NA,NA,NA,NA,NA,NA,NA,NA,NA,NA,NA,NA,NA,NA,NA,NA,NA,NA,NA,NA,NA,NA,NA,NA,NA,NA,NA,NA,NA,NA,NA,NA,NA,NA,NA,NA,include,exclude
645696,other/missing/error,f,NA,NA,NA,NA,NA,NA,NA,NA,NA,NA,NA,NA,NA,NA,NA,NA,NA,NA,NA,NA,NA,NA,NA,NA,NA,NA,NA,NA,NA,NA,NA,NA,NA,NA,NA,NA,NA,NA,NA,NA,NA,NA,NA,NA,NA,NA,NA,NA,NA,NA,NA,NA,NA,NA,NA,NA,NA,NA,NA,NA,NA,include,exclude
418261,other/missing/error,m,NA,NA,NA,NA,NA,NA,NA,NA,NA,NA,NA,NA,NA,NA,NA,NA,NA,NA,NA,NA,NA,NA,NA,NA,NA,NA,NA,NA,NA,NA,NA,NA,NA,NA,NA,NA,NA,NA,NA,NA,NA,NA,NA,NA,NA,NA,NA,NA,NA,NA,NA,NA,NA,NA,NA,NA,NA,NA,NA,NA,NA,include,exclude
116746,other/missing/error,other/missing/error,NA,NA,NA,NA,NA,NA,NA,NA,NA,NA,NA,NA,NA,NA,NA,NA,NA,NA,NA,NA,NA,NA,NA,NA,NA,NA,NA,NA,NA,NA,NA,NA,NA,NA,NA,NA,NA,NA,NA,NA,NA,NA,NA,NA,NA,NA,NA,NA,NA,NA,NA,NA,NA,NA,NA,NA,NA,NA,NA,NA,NA,include,exclude
375509,29,other/missing/error,NA,NA,NA,NA,NA,NA,NA,NA,NA,NA,NA,NA,NA,NA,NA,NA,NA,NA,NA,NA,NA,NA,NA,NA,NA,NA,NA,NA,NA,NA,NA,NA,NA,NA,NA,NA,NA,NA,NA,NA,NA,NA,NA,NA,NA,NA,NA,NA,NA,NA,NA,NA,NA,NA,NA,NA,NA,NA,NA,NA,NA,include,exclude
341967,30,other/missing/error,NA,NA,NA,NA,NA,NA,NA,NA,NA,NA,NA,NA,NA,NA,NA,NA,NA,NA,NA,NA,NA,NA,NA,NA,NA,NA,NA,NA,NA,NA,NA,NA,NA,NA,NA,NA,NA,NA,NA,NA,NA,NA,NA,NA,NA,NA,NA,NA,NA,NA,NA,NA,NA,NA,NA,NA,NA,NA,NA,NA,NA,include,exclude
379632,29,other/missing/error,NA,NA,NA,NA,NA,NA,NA,NA,NA,NA,NA,NA,NA,NA,NA,NA,NA,NA,NA,NA,NA,NA,NA,NA,NA,NA,NA,NA,NA,NA,NA,NA,NA,NA,NA,NA,NA,NA,NA,NA,NA,NA,NA,NA,NA,NA,NA,NA,NA,NA,NA,NA,NA,NA,NA,NA,NA,NA,NA,NA,NA,include,exclude
206903,other/missing/error,other/missing/error,NA,NA,NA,NA,NA,NA,NA,NA,NA,NA,NA,NA,NA,NA,NA,NA,NA,NA,NA,NA,NA,NA,NA,NA,NA,NA,NA,NA,NA,NA,NA,NA,NA,NA,NA,NA,NA,NA,NA,NA,NA,NA,NA,NA,NA,NA,NA,NA,NA,NA,NA,NA,NA,NA,NA,NA,NA,NA,NA,NA,NA,include,exclude
669059,22,other/missing/error,NA,NA,NA,NA,NA,NA,NA,NA,NA,NA,NA,NA,NA,NA,NA,NA,NA,NA,NA,NA,NA,NA,NA,NA,NA,NA,NA,NA,NA,NA,NA,NA,NA,NA,NA,NA,NA,NA,NA,NA,NA,NA,NA,NA,NA,NA,NA,NA,NA,NA,NA,NA,NA,NA,NA,NA,NA,NA,NA,NA,NA,include,exclude
136149,other/missing/error,other/missing/error,NA,NA,NA,NA,NA,NA,NA,NA,NA,NA,NA,NA,NA,NA,NA,NA,NA,NA,NA,NA,NA,NA,NA,NA,NA,NA,NA,NA,NA,NA,NA,NA,NA,NA,NA,NA,NA,NA,NA,NA,NA,NA,NA,NA,NA,NA,NA,NA,NA,NA,NA,NA,NA,NA,NA,NA,NA,NA,NA,NA,NA,include,exclude
122992,other/missing/error,other/missing/error,NA,NA,NA,NA,NA,NA,NA,NA,NA,NA,NA,NA,NA,NA,NA,NA,NA,NA,NA,NA,NA,NA,NA,NA,NA,NA,NA,NA,NA,NA,NA,NA,NA,NA,NA,NA,NA,NA,NA,NA,NA,NA,NA,NA,NA,NA,NA,NA,NA,NA,NA,NA,NA,NA,NA,NA,NA,NA,NA,NA,NA,include,exclude
298477,other/missing/error,other/missing/error,NA,NA,NA,NA,NA,NA,NA,NA,NA,NA,NA,NA,NA,NA,NA,NA,NA,NA,NA,NA,NA,NA,NA,NA,NA,NA,NA,NA,NA,NA,NA,NA,NA,NA,NA,NA,NA,NA,NA,NA,NA,NA,NA,NA,NA,NA,NA,NA,NA,NA,NA,NA,NA,NA,NA,NA,NA,NA,NA,NA,NA,include,exclude
350108,19,other/missing/error,NA,NA,NA,NA,NA,NA,NA,NA,NA,NA,NA,NA,NA,NA,NA,NA,NA,NA,NA,NA,NA,NA,NA,NA,NA,NA,NA,NA,NA,NA,NA,NA,NA,NA,NA,NA,NA,NA,NA,NA,NA,NA,NA,NA,NA,NA,NA,NA,NA,NA,NA,NA,NA,NA,NA,NA,NA,NA,NA,NA,NA,include,exclude
607524,40,other/missing/error,NA,NA,NA,NA,NA,NA,NA,NA,NA,NA,NA,NA,NA,NA,NA,NA,NA,NA,NA,NA,NA,NA,NA,NA,NA,NA,NA,NA,NA,NA,NA,NA,NA,NA,NA,NA,NA,NA,NA,NA,NA,NA,NA,NA,NA,NA,NA,NA,NA,NA,NA,NA,NA,NA,NA,NA,NA,NA,NA,NA,NA,include,exclude
152751,other/missing/error,f,NA,NA,NA,NA,NA,NA,NA,NA,NA,NA,NA,NA,NA,NA,NA,NA,NA,NA,NA,NA,NA,NA,NA,NA,NA,NA,NA,NA,NA,NA,NA,NA,NA,NA,NA,NA,NA,NA,NA,NA,NA,NA,NA,NA,NA,NA,NA,NA,NA,NA,NA,NA,NA,NA,NA,NA,NA,NA,NA,NA,NA,include,exclude
170015,36,other/missing/error,NA,NA,NA,NA,NA,NA,NA,NA,NA,NA,NA,NA,NA,NA,NA,NA,NA,NA,NA,NA,NA,NA,NA,NA,NA,NA,NA,NA,NA,NA,NA,NA,NA,NA,NA,NA,NA,NA,NA,NA,NA,NA,NA,NA,NA,NA,NA,NA,NA,NA,NA,NA,NA,NA,NA,NA,NA,NA,NA,NA,NA,include,exclude
336131,other/missing/error,other/missing/error,NA,NA,NA,NA,NA,NA,NA,NA,NA,NA,NA,NA,NA,NA,NA,NA,NA,NA,NA,NA,NA,NA,NA,NA,NA,NA,NA,NA,NA,NA,NA,NA,NA,NA,NA,NA,NA,NA,NA,NA,NA,NA,NA,NA,NA,NA,NA,NA,NA,NA,NA,NA,NA,NA,NA,NA,NA,NA,NA,NA,NA,include,exclude
399209,19,other/missing/error,NA,NA,NA,NA,NA,NA,NA,NA,NA,NA,NA,NA,NA,NA,NA,NA,NA,NA,NA,NA,NA,NA,NA,NA,NA,NA,NA,NA,NA,NA,NA,NA,NA,NA,NA,NA,NA,NA,NA,NA,NA,NA,NA,NA,NA,NA,NA,NA,NA,NA,NA,NA,NA,NA,NA,NA,NA,NA,NA,NA,NA,include,exclude
307337,52,other/missing/error,NA,NA,NA,NA,NA,NA,NA,NA,NA,NA,NA,NA,NA,NA,NA,NA,NA,NA,NA,NA,NA,NA,NA,NA,NA,NA,NA,NA,NA,NA,NA,NA,NA,NA,NA,NA,NA,NA,NA,NA,NA,NA,NA,NA,NA,NA,NA,NA,NA,NA,NA,NA,NA,NA,NA,NA,NA,NA,NA,NA,NA,include,exclude
267116,35,other/missing/error,NA,NA,NA,NA,NA,NA,NA,NA,NA,NA,NA,NA,NA,NA,NA,NA,NA,NA,NA,NA,NA,NA,NA,NA,NA,NA,NA,NA,NA,NA,NA,NA,NA,NA,NA,NA,NA,NA,NA,NA,NA,NA,NA,NA,NA,NA,NA,NA,NA,NA,NA,NA,NA,NA,NA,NA,NA,NA,NA,NA,NA,include,exclude
455238,31,other/missing/error,NA,NA,NA,NA,NA,NA,NA,NA,NA,NA,NA,NA,NA,NA,NA,NA,NA,NA,NA,NA,NA,NA,NA,NA,NA,NA,NA,NA,NA,NA,NA,NA,NA,NA,NA,NA,NA,NA,NA,NA,NA,NA,NA,NA,NA,NA,NA,NA,NA,NA,NA,NA,NA,NA,NA,NA,NA,NA,NA,NA,NA,include,exclude
379129,20,other/missing/error,NA,NA,NA,NA,NA,NA,NA,NA,NA,NA,NA,NA,NA,NA,NA,NA,NA,NA,NA,NA,NA,NA,NA,NA,NA,NA,NA,NA,NA,NA,NA,NA,NA,NA,NA,NA,NA,NA,NA,NA,NA,NA,NA,NA,NA,NA,NA,NA,NA,NA,NA,NA,NA,NA,NA,NA,NA,NA,NA,NA,NA,include,exclude
190769,other/missing/error,other/missing/error,NA,NA,NA,NA,NA,NA,NA,NA,NA,NA,NA,NA,NA,NA,NA,NA,NA,NA,NA,NA,NA,NA,NA,NA,NA,NA,NA,NA,NA,NA,NA,NA,NA,NA,NA,NA,NA,NA,NA,NA,NA,NA,NA,NA,NA,NA,NA,NA,NA,NA,NA,NA,NA,NA,NA,NA,NA,NA,NA,NA,NA,include,exclude
664516,other/missing/error,m,NA,NA,NA,NA,NA,NA,NA,NA,NA,NA,NA,NA,NA,NA,NA,NA,NA,NA,NA,NA,NA,NA,NA,NA,NA,NA,NA,NA,NA,NA,NA,NA,NA,NA,NA,NA,NA,NA,NA,NA,NA,NA,NA,NA,NA,NA,NA,NA,NA,NA,NA,NA,NA,NA,NA,NA,NA,NA,NA,NA,NA,include,exclude
120660,other/missing/error,other/missing/error,NA,NA,NA,NA,NA,NA,NA,NA,NA,NA,NA,NA,NA,NA,NA,NA,NA,NA,NA,NA,NA,NA,NA,NA,NA,NA,NA,NA,NA,NA,NA,NA,NA,NA,NA,NA,NA,NA,NA,NA,NA,NA,NA,NA,NA,NA,NA,NA,NA,NA,NA,NA,NA,NA,NA,NA,NA,NA,NA,NA,NA,include,exclude
586252,other/missing/error,m,NA,NA,NA,NA,NA,NA,NA,NA,NA,NA,NA,NA,NA,NA,NA,NA,NA,NA,NA,NA,NA,NA,NA,NA,NA,NA,NA,NA,NA,NA,NA,NA,NA,NA,NA,NA,NA,NA,NA,NA,NA,NA,NA,NA,NA,NA,NA,NA,NA,NA,NA,NA,NA,NA,NA,NA,NA,NA,NA,NA,NA,include,exclude
255824,other/missing/error,m,NA,NA,NA,NA,NA,NA,NA,NA,NA,NA,NA,NA,NA,NA,NA,NA,NA,NA,NA,NA,NA,NA,NA,NA,NA,NA,NA,NA,NA,NA,NA,NA,NA,NA,NA,NA,NA,NA,NA,NA,NA,NA,NA,NA,NA,NA,NA,NA,NA,NA,NA,NA,NA,NA,NA,NA,NA,NA,NA,NA,NA,include,exclude
619478,21,other/missing/error,NA,NA,NA,NA,NA,NA,NA,NA,NA,NA,NA,NA,NA,NA,NA,NA,NA,NA,NA,NA,NA,NA,NA,NA,NA,NA,NA,NA,NA,NA,NA,NA,NA,NA,NA,NA,NA,NA,NA,NA,NA,NA,NA,NA,NA,NA,NA,NA,NA,NA,NA,NA,NA,NA,NA,NA,NA,NA,NA,NA,NA,include,exclude
625214,20,other/missing/error,NA,NA,NA,NA,NA,NA,NA,NA,NA,NA,NA,NA,NA,NA,NA,NA,NA,NA,NA,NA,NA,NA,NA,NA,NA,NA,NA,NA,NA,NA,NA,NA,NA,NA,NA,NA,NA,NA,NA,NA,NA,NA,NA,NA,NA,NA,NA,NA,NA,NA,NA,NA,NA,NA,NA,NA,NA,NA,NA,NA,NA,include,exclude
361719,36,other/missing/error,NA,NA,NA,NA,NA,NA,NA,NA,NA,NA,NA,NA,NA,NA,NA,NA,NA,NA,NA,NA,NA,NA,NA,NA,NA,NA,NA,NA,NA,NA,NA,NA,NA,NA,NA,NA,NA,NA,NA,NA,NA,NA,NA,NA,NA,NA,NA,NA,NA,NA,NA,NA,NA,NA,NA,NA,NA,NA,NA,NA,NA,include,exclude
344511,31,other/missing/error,NA,NA,NA,NA,NA,NA,NA,NA,NA,NA,NA,NA,NA,NA,NA,NA,NA,NA,NA,NA,NA,NA,NA,NA,NA,NA,NA,NA,NA,NA,NA,NA,NA,NA,NA,NA,NA,NA,NA,NA,NA,NA,NA,NA,NA,NA,NA,NA,NA,NA,NA,NA,NA,NA,NA,NA,NA,NA,NA,NA,NA,include,exclude
228323,other/missing/error,f,NA,NA,NA,NA,NA,NA,NA,NA,NA,NA,NA,NA,NA,NA,NA,NA,NA,NA,NA,NA,NA,NA,NA,NA,NA,NA,NA,NA,NA,NA,NA,NA,NA,NA,NA,NA,NA,NA,NA,NA,NA,NA,NA,NA,NA,NA,NA,NA,NA,NA,NA,NA,NA,NA,NA,NA,NA,NA,NA,NA,NA,include,exclude
433464,other/missing/error,m,NA,NA,NA,NA,NA,NA,NA,NA,NA,NA,NA,NA,NA,NA,NA,NA,NA,NA,NA,NA,NA,NA,NA,NA,NA,NA,NA,NA,NA,NA,NA,NA,NA,NA,NA,NA,NA,NA,NA,NA,NA,NA,NA,NA,NA,NA,NA,NA,NA,NA,NA,NA,NA,NA,NA,NA,NA,NA,NA,NA,NA,include,exclude
235002,27,other/missing/error,NA,NA,NA,NA,NA,NA,NA,NA,NA,NA,NA,NA,NA,NA,NA,NA,NA,NA,NA,NA,NA,NA,NA,NA,NA,NA,NA,NA,NA,NA,NA,NA,NA,NA,NA,NA,NA,NA,NA,NA,NA,NA,NA,NA,NA,NA,NA,NA,NA,NA,NA,NA,NA,NA,NA,NA,NA,NA,NA,NA,NA,include,exclude
329897,35,other/missing/error,NA,NA,NA,NA,NA,NA,NA,NA,NA,NA,NA,NA,NA,NA,NA,NA,NA,NA,NA,NA,NA,NA,NA,NA,NA,NA,NA,NA,NA,NA,NA,NA,NA,NA,NA,NA,NA,NA,NA,NA,NA,NA,NA,NA,NA,NA,NA,NA,NA,NA,NA,NA,NA,NA,NA,NA,NA,NA,NA,NA,NA,include,exclude
310964,35,other/missing/error,NA,NA,NA,NA,NA,NA,NA,NA,NA,NA,NA,NA,NA,NA,NA,NA,NA,NA,NA,NA,NA,NA,NA,NA,NA,NA,NA,NA,NA,NA,NA,NA,NA,NA,NA,NA,NA,NA,NA,NA,NA,NA,NA,NA,NA,NA,NA,NA,NA,NA,NA,NA,NA,NA,NA,NA,NA,NA,NA,NA,NA,include,exclude
517953,other/missing/error,f,NA,NA,NA,NA,NA,NA,NA,NA,NA,NA,NA,NA,NA,NA,NA,NA,NA,NA,NA,NA,NA,NA,NA,NA,NA,NA,NA,NA,NA,NA,NA,NA,NA,NA,NA,NA,NA,NA,NA,NA,NA,NA,NA,NA,NA,NA,NA,NA,NA,NA,NA,NA,NA,NA,NA,NA,NA,NA,NA,NA,NA,include,exclude
546970,19,other/missing/error,NA,NA,NA,NA,NA,NA,NA,NA,NA,NA,NA,NA,NA,NA,NA,NA,NA,NA,NA,NA,NA,NA,NA,NA,NA,NA,NA,NA,NA,NA,NA,NA,NA,NA,NA,NA,NA,NA,NA,NA,NA,NA,NA,NA,NA,NA,NA,NA,NA,NA,NA,NA,NA,NA,NA,NA,NA,NA,NA,NA,NA,include,exclude
453724,43,other/missing/error,NA,NA,NA,NA,NA,NA,NA,NA,NA,NA,NA,NA,NA,NA,NA,NA,NA,NA,NA,NA,NA,NA,NA,NA,NA,NA,NA,NA,NA,NA,NA,NA,NA,NA,NA,NA,NA,NA,NA,NA,NA,NA,NA,NA,NA,NA,NA,NA,NA,NA,NA,NA,NA,NA,NA,NA,NA,NA,NA,NA,NA,include,exclude
301974,other/missing/error,m,NA,NA,NA,NA,NA,NA,NA,NA,NA,NA,NA,NA,NA,NA,NA,NA,NA,NA,NA,NA,NA,NA,NA,NA,NA,NA,NA,NA,NA,NA,NA,NA,NA,NA,NA,NA,NA,NA,NA,NA,NA,NA,NA,NA,NA,NA,NA,NA,NA,NA,NA,NA,NA,NA,NA,NA,NA,NA,NA,NA,NA,include,exclude
223697,other/missing/error,f,NA,NA,NA,NA,NA,NA,NA,NA,NA,NA,NA,NA,NA,NA,NA,NA,NA,NA,NA,NA,NA,NA,NA,NA,NA,NA,NA,NA,NA,NA,NA,NA,NA,NA,NA,NA,NA,NA,NA,NA,NA,NA,NA,NA,NA,NA,NA,NA,NA,NA,NA,NA,NA,NA,NA,NA,NA,NA,NA,NA,NA,include,exclude
558988,other/missing/error,f,NA,NA,NA,NA,NA,NA,NA,NA,NA,NA,NA,NA,NA,NA,NA,NA,NA,NA,NA,NA,NA,NA,NA,NA,NA,NA,NA,NA,NA,NA,NA,NA,NA,NA,NA,NA,NA,NA,NA,NA,NA,NA,NA,NA,NA,NA,NA,NA,NA,NA,NA,NA,NA,NA,NA,NA,NA,NA,NA,NA,NA,include,exclude
355523,23,other/missing/error,NA,NA,NA,NA,NA,NA,NA,NA,NA,NA,NA,NA,NA,NA,NA,NA,NA,NA,NA,NA,NA,NA,NA,NA,NA,NA,NA,NA,NA,NA,NA,NA,NA,NA,NA,NA,NA,NA,NA,NA,NA,NA,NA,NA,NA,NA,NA,NA,NA,NA,NA,NA,NA,NA,NA,NA,NA,NA,NA,NA,NA,include,exclude
401460,35,other/missing/error,NA,NA,NA,NA,NA,NA,NA,NA,NA,NA,NA,NA,NA,NA,NA,NA,NA,NA,NA,NA,NA,NA,NA,NA,NA,NA,NA,NA,NA,NA,NA,NA,NA,NA,NA,NA,NA,NA,NA,NA,NA,NA,NA,NA,NA,NA,NA,NA,NA,NA,NA,NA,NA,NA,NA,NA,NA,NA,NA,NA,NA,include,exclude
499819,19,other/missing/error,NA,NA,NA,NA,NA,NA,NA,NA,NA,NA,NA,NA,NA,NA,NA,NA,NA,NA,NA,NA,NA,NA,NA,NA,NA,NA,NA,NA,NA,NA,NA,NA,NA,NA,NA,NA,NA,NA,NA,NA,NA,NA,NA,NA,NA,NA,NA,NA,NA,NA,NA,NA,NA,NA,NA,NA,NA,NA,NA,NA,NA,include,exclude
469130,44,other/missing/error,NA,NA,NA,NA,NA,NA,NA,NA,NA,NA,NA,NA,NA,NA,NA,NA,NA,NA,NA,NA,NA,NA,NA,NA,NA,NA,NA,NA,NA,NA,NA,NA,NA,NA,NA,NA,NA,NA,NA,NA,NA,NA,NA,NA,NA,NA,NA,NA,NA,NA,NA,NA,NA,NA,NA,NA,NA,NA,NA,NA,NA,include,exclude
170379,other/missing/error,other/missing/error,NA,NA,NA,NA,NA,NA,NA,NA,NA,NA,NA,NA,NA,NA,NA,NA,NA,NA,NA,NA,NA,NA,NA,NA,NA,NA,NA,NA,NA,NA,NA,NA,NA,NA,NA,NA,NA,NA,NA,NA,NA,NA,NA,NA,NA,NA,NA,NA,NA,NA,NA,NA,NA,NA,NA,NA,NA,NA,NA,NA,NA,include,exclude
645210,other/missing/error,f,NA,NA,NA,NA,NA,NA,NA,NA,NA,NA,NA,NA,NA,NA,NA,NA,NA,NA,NA,NA,NA,NA,NA,NA,NA,NA,NA,NA,NA,NA,NA,NA,NA,NA,NA,NA,NA,NA,NA,NA,NA,NA,NA,NA,NA,NA,NA,NA,NA,NA,NA,NA,NA,NA,NA,NA,NA,NA,NA,NA,NA,include,exclude
550345,23,other/missing/error,NA,NA,NA,NA,NA,NA,NA,NA,NA,NA,NA,NA,NA,NA,NA,NA,NA,NA,NA,NA,NA,NA,NA,NA,NA,NA,NA,NA,NA,NA,NA,NA,NA,NA,NA,NA,NA,NA,NA,NA,NA,NA,NA,NA,NA,NA,NA,NA,NA,NA,NA,NA,NA,NA,NA,NA,NA,NA,NA,NA,NA,include,exclude
509118,other/missing/error,m,NA,NA,NA,NA,NA,NA,NA,NA,NA,NA,NA,NA,NA,NA,NA,NA,NA,NA,NA,NA,NA,NA,NA,NA,NA,NA,NA,NA,NA,NA,NA,NA,NA,NA,NA,NA,NA,NA,NA,NA,NA,NA,NA,NA,NA,NA,NA,NA,NA,NA,NA,NA,NA,NA,NA,NA,NA,NA,NA,NA,NA,include,exclude
493088,29,other/missing/error,NA,NA,NA,NA,NA,NA,NA,NA,NA,NA,NA,NA,NA,NA,NA,NA,NA,NA,NA,NA,NA,NA,NA,NA,NA,NA,NA,NA,NA,NA,NA,NA,NA,NA,NA,NA,NA,NA,NA,NA,NA,NA,NA,NA,NA,NA,NA,NA,NA,NA,NA,NA,NA,NA,NA,NA,NA,NA,NA,NA,NA,include,exclude
196453,other/missing/error,other/missing/error,NA,NA,NA,NA,NA,NA,NA,NA,NA,NA,NA,NA,NA,NA,NA,NA,NA,NA,NA,NA,NA,NA,NA,NA,NA,NA,NA,NA,NA,NA,NA,NA,NA,NA,NA,NA,NA,NA,NA,NA,NA,NA,NA,NA,NA,NA,NA,NA,NA,NA,NA,NA,NA,NA,NA,NA,NA,NA,NA,NA,NA,include,exclude
326757,other/missing/error,other/missing/error,NA,NA,NA,NA,NA,NA,NA,NA,NA,NA,NA,NA,NA,NA,NA,NA,NA,NA,NA,NA,NA,NA,NA,NA,NA,NA,NA,NA,NA,NA,NA,NA,NA,NA,NA,NA,NA,NA,NA,NA,NA,NA,NA,NA,NA,NA,NA,NA,NA,NA,NA,NA,NA,NA,NA,NA,NA,NA,NA,NA,NA,include,exclude
566807,17,other/missing/error,NA,NA,NA,NA,NA,NA,NA,NA,NA,NA,NA,NA,NA,NA,NA,NA,NA,NA,NA,NA,NA,NA,NA,NA,NA,NA,NA,NA,NA,NA,NA,NA,NA,NA,NA,NA,NA,NA,NA,NA,NA,NA,NA,NA,NA,NA,NA,NA,NA,NA,NA,NA,NA,NA,NA,NA,NA,NA,NA,NA,NA,include,exclude
344736,30,other/missing/error,NA,NA,NA,NA,NA,NA,NA,NA,NA,NA,NA,NA,NA,NA,NA,NA,NA,NA,NA,NA,NA,NA,NA,NA,NA,NA,NA,NA,NA,NA,NA,NA,NA,NA,NA,NA,NA,NA,NA,NA,NA,NA,NA,NA,NA,NA,NA,NA,NA,NA,NA,NA,NA,NA,NA,NA,NA,NA,NA,NA,NA,include,exclude
477257,other/missing/error,other/missing/error,NA,NA,NA,NA,NA,NA,NA,NA,NA,NA,NA,NA,NA,NA,NA,NA,NA,NA,NA,NA,NA,NA,NA,NA,NA,NA,NA,NA,NA,NA,NA,NA,NA,NA,NA,NA,NA,NA,NA,NA,NA,NA,NA,NA,NA,NA,NA,NA,NA,NA,NA,NA,NA,NA,NA,NA,NA,NA,NA,NA,NA,include,exclude
454771,other/missing/error,f,NA,NA,NA,NA,NA,NA,NA,NA,NA,NA,NA,NA,NA,NA,NA,NA,NA,NA,NA,NA,NA,NA,NA,NA,NA,NA,NA,NA,NA,NA,NA,NA,NA,NA,NA,NA,NA,NA,NA,NA,NA,NA,NA,NA,NA,NA,NA,NA,NA,NA,NA,NA,NA,NA,NA,NA,NA,NA,NA,NA,NA,include,exclude
551773,65,other/missing/error,NA,NA,NA,NA,NA,NA,NA,NA,NA,NA,NA,NA,NA,NA,NA,NA,NA,NA,NA,NA,NA,NA,NA,NA,NA,NA,NA,NA,NA,NA,NA,NA,NA,NA,NA,NA,NA,NA,NA,NA,NA,NA,NA,NA,NA,NA,NA,NA,NA,NA,NA,NA,NA,NA,NA,NA,NA,NA,NA,NA,NA,include,exclude
612687,21,other/missing/error,NA,NA,NA,NA,NA,NA,NA,NA,NA,NA,NA,NA,NA,NA,NA,NA,NA,NA,NA,NA,NA,NA,NA,NA,NA,NA,NA,NA,NA,NA,NA,NA,NA,NA,NA,NA,NA,NA,NA,NA,NA,NA,NA,NA,NA,NA,NA,NA,NA,NA,NA,NA,NA,NA,NA,NA,NA,NA,NA,NA,NA,include,exclude
659118,other/missing/error,f,NA,NA,NA,NA,NA,NA,NA,NA,NA,NA,NA,NA,NA,NA,NA,NA,NA,NA,NA,NA,NA,NA,NA,NA,NA,NA,NA,NA,NA,NA,NA,NA,NA,NA,NA,NA,NA,NA,NA,NA,NA,NA,NA,NA,NA,NA,NA,NA,NA,NA,NA,NA,NA,NA,NA,NA,NA,NA,NA,NA,NA,include,exclude
308094,other/missing/error,f,NA,NA,NA,NA,NA,NA,NA,NA,NA,NA,NA,NA,NA,NA,NA,NA,NA,NA,NA,NA,NA,NA,NA,NA,NA,NA,NA,NA,NA,NA,NA,NA,NA,NA,NA,NA,NA,NA,NA,NA,NA,NA,NA,NA,NA,NA,NA,NA,NA,NA,NA,NA,NA,NA,NA,NA,NA,NA,NA,NA,NA,include,exclude
378287,27,other/missing/error,NA,NA,NA,NA,NA,NA,NA,NA,NA,NA,NA,NA,NA,NA,NA,NA,NA,NA,NA,NA,NA,NA,NA,NA,NA,NA,NA,NA,NA,NA,NA,NA,NA,NA,NA,NA,NA,NA,NA,NA,NA,NA,NA,NA,NA,NA,NA,NA,NA,NA,NA,NA,NA,NA,NA,NA,NA,NA,NA,NA,NA,include,exclude
261066,other/missing/error,f,NA,NA,NA,NA,NA,NA,NA,NA,NA,NA,NA,NA,NA,NA,NA,NA,NA,NA,NA,NA,NA,NA,NA,NA,NA,NA,NA,NA,NA,NA,NA,NA,NA,NA,NA,NA,NA,NA,NA,NA,NA,NA,NA,NA,NA,NA,NA,NA,NA,NA,NA,NA,NA,NA,NA,NA,NA,NA,NA,NA,NA,include,exclude
643783,other/missing/error,f,NA,NA,NA,NA,NA,NA,NA,NA,NA,NA,NA,NA,NA,NA,NA,NA,NA,NA,NA,NA,NA,NA,NA,NA,NA,NA,NA,NA,NA,NA,NA,NA,NA,NA,NA,NA,NA,NA,NA,NA,NA,NA,NA,NA,NA,NA,NA,NA,NA,NA,NA,NA,NA,NA,NA,NA,NA,NA,NA,NA,NA,include,exclude
134029,other/missing/error,other/missing/error,NA,NA,NA,NA,NA,NA,NA,NA,NA,NA,NA,NA,NA,NA,NA,NA,NA,NA,NA,NA,NA,NA,NA,NA,NA,NA,NA,NA,NA,NA,NA,NA,NA,NA,NA,NA,NA,NA,NA,NA,NA,NA,NA,NA,NA,NA,NA,NA,NA,NA,NA,NA,NA,NA,NA,NA,NA,NA,NA,NA,NA,include,exclude
577532,other/missing/error,f,NA,NA,NA,NA,NA,NA,NA,NA,NA,NA,NA,NA,NA,NA,NA,NA,NA,NA,NA,NA,NA,NA,NA,NA,NA,NA,NA,NA,NA,NA,NA,NA,NA,NA,NA,NA,NA,NA,NA,NA,NA,NA,NA,NA,NA,NA,NA,NA,NA,NA,NA,NA,NA,NA,NA,NA,NA,NA,NA,NA,NA,include,exclude
199563,other/missing/error,other/missing/error,NA,NA,NA,NA,NA,NA,NA,NA,NA,NA,NA,NA,NA,NA,NA,NA,NA,NA,NA,NA,NA,NA,NA,NA,NA,NA,NA,NA,NA,NA,NA,NA,NA,NA,NA,NA,NA,NA,NA,NA,NA,NA,NA,NA,NA,NA,NA,NA,NA,NA,NA,NA,NA,NA,NA,NA,NA,NA,NA,NA,NA,include,exclude
411777,39,other/missing/error,NA,NA,NA,NA,NA,NA,NA,NA,NA,NA,NA,NA,NA,NA,NA,NA,NA,NA,NA,NA,NA,NA,NA,NA,NA,NA,NA,NA,NA,NA,NA,NA,NA,NA,NA,NA,NA,NA,NA,NA,NA,NA,NA,NA,NA,NA,NA,NA,NA,NA,NA,NA,NA,NA,NA,NA,NA,NA,NA,NA,NA,include,exclude
645496,18,other/missing/error,NA,NA,NA,NA,NA,NA,NA,NA,NA,NA,NA,NA,NA,NA,NA,NA,NA,NA,NA,NA,NA,NA,NA,NA,NA,NA,NA,NA,NA,NA,NA,NA,NA,NA,NA,NA,NA,NA,NA,NA,NA,NA,NA,NA,NA,NA,NA,NA,NA,NA,NA,NA,NA,NA,NA,NA,NA,NA,NA,NA,NA,include,exclude
195497,other/missing/error,other/missing/error,NA,NA,NA,NA,NA,NA,NA,NA,NA,NA,NA,NA,NA,NA,NA,NA,NA,NA,NA,NA,NA,NA,NA,NA,NA,NA,NA,NA,NA,NA,NA,NA,NA,NA,NA,NA,NA,NA,NA,NA,NA,NA,NA,NA,NA,NA,NA,NA,NA,NA,NA,NA,NA,NA,NA,NA,NA,NA,NA,NA,NA,include,exclude
641353,other/missing/error,other/missing/error,NA,NA,NA,NA,NA,NA,NA,NA,NA,NA,NA,NA,NA,NA,NA,NA,NA,NA,NA,NA,NA,NA,NA,NA,NA,NA,NA,NA,NA,NA,NA,NA,NA,NA,NA,NA,NA,NA,NA,NA,NA,NA,NA,NA,NA,NA,NA,NA,NA,NA,NA,NA,NA,NA,NA,NA,NA,NA,NA,NA,NA,include,exclude
160049,other/missing/error,other/missing/error,NA,NA,NA,NA,NA,NA,NA,NA,NA,NA,NA,NA,NA,NA,NA,NA,NA,NA,NA,NA,NA,NA,NA,NA,NA,NA,NA,NA,NA,NA,NA,NA,NA,NA,NA,NA,NA,NA,NA,NA,NA,NA,NA,NA,NA,NA,NA,NA,NA,NA,NA,NA,NA,NA,NA,NA,NA,NA,NA,NA,NA,include,exclude
300728,other/missing/error,f,NA,NA,NA,NA,NA,NA,NA,NA,NA,NA,NA,NA,NA,NA,NA,NA,NA,NA,NA,NA,NA,NA,NA,NA,NA,NA,NA,NA,NA,NA,NA,NA,NA,NA,NA,NA,NA,NA,NA,NA,NA,NA,NA,NA,NA,NA,NA,NA,NA,NA,NA,NA,NA,NA,NA,NA,NA,NA,NA,NA,NA,include,exclude
277895,other/missing/error,m,NA,NA,NA,NA,NA,NA,NA,NA,NA,NA,NA,NA,NA,NA,NA,NA,NA,NA,NA,NA,NA,NA,NA,NA,NA,NA,NA,NA,NA,NA,NA,NA,NA,NA,NA,NA,NA,NA,NA,NA,NA,NA,NA,NA,NA,NA,NA,NA,NA,NA,NA,NA,NA,NA,NA,NA,NA,NA,NA,NA,NA,include,exclude
596216,other/missing/error,f,NA,NA,NA,NA,NA,NA,NA,NA,NA,NA,NA,NA,NA,NA,NA,NA,NA,NA,NA,NA,NA,NA,NA,NA,NA,NA,NA,NA,NA,NA,NA,NA,NA,NA,NA,NA,NA,NA,NA,NA,NA,NA,NA,NA,NA,NA,NA,NA,NA,NA,NA,NA,NA,NA,NA,NA,NA,NA,NA,NA,NA,include,exclude
359274,other/missing/error,f,NA,NA,NA,NA,NA,NA,NA,NA,NA,NA,NA,NA,NA,NA,NA,NA,NA,NA,NA,NA,NA,NA,NA,NA,NA,NA,NA,NA,NA,NA,NA,NA,NA,NA,NA,NA,NA,NA,NA,NA,NA,NA,NA,NA,NA,NA,NA,NA,NA,NA,NA,NA,NA,NA,NA,NA,NA,NA,NA,NA,NA,include,exclude
560216,other/missing/error,f,NA,NA,NA,NA,NA,NA,NA,NA,NA,NA,NA,NA,NA,NA,NA,NA,NA,NA,NA,NA,NA,NA,NA,NA,NA,NA,NA,NA,NA,NA,NA,NA,NA,NA,NA,NA,NA,NA,NA,NA,NA,NA,NA,NA,NA,NA,NA,NA,NA,NA,NA,NA,NA,NA,NA,NA,NA,NA,NA,NA,NA,include,exclude
279540,other/missing/error,m,NA,NA,NA,NA,NA,NA,NA,NA,NA,NA,NA,NA,NA,NA,NA,NA,NA,NA,NA,NA,NA,NA,NA,NA,NA,NA,NA,NA,NA,NA,NA,NA,NA,NA,NA,NA,NA,NA,NA,NA,NA,NA,NA,NA,NA,NA,NA,NA,NA,NA,NA,NA,NA,NA,NA,NA,NA,NA,NA,NA,NA,include,exclude
641072,other/missing/error,other/missing/error,NA,NA,NA,NA,NA,NA,NA,NA,NA,NA,NA,NA,NA,NA,NA,NA,NA,NA,NA,NA,NA,NA,NA,NA,NA,NA,NA,NA,NA,NA,NA,NA,NA,NA,NA,NA,NA,NA,NA,NA,NA,NA,NA,NA,NA,NA,NA,NA,NA,NA,NA,NA,NA,NA,NA,NA,NA,NA,NA,NA,NA,include,exclude
500267,18,other/missing/error,NA,NA,NA,NA,NA,NA,NA,NA,NA,NA,NA,NA,NA,NA,NA,NA,NA,NA,NA,NA,NA,NA,NA,NA,NA,NA,NA,NA,NA,NA,NA,NA,NA,NA,NA,NA,NA,NA,NA,NA,NA,NA,NA,NA,NA,NA,NA,NA,NA,NA,NA,NA,NA,NA,NA,NA,NA,NA,NA,NA,NA,include,exclude
452844,42,other/missing/error,NA,NA,NA,NA,NA,NA,NA,NA,NA,NA,NA,NA,NA,NA,NA,NA,NA,NA,NA,NA,NA,NA,NA,NA,NA,NA,NA,NA,NA,NA,NA,NA,NA,NA,NA,NA,NA,NA,NA,NA,NA,NA,NA,NA,NA,NA,NA,NA,NA,NA,NA,NA,NA,NA,NA,NA,NA,NA,NA,NA,NA,include,exclude
113540,other/missing/error,other/missing/error,NA,NA,NA,NA,NA,NA,NA,NA,NA,NA,NA,NA,NA,NA,NA,NA,NA,NA,NA,NA,NA,NA,NA,NA,NA,NA,NA,NA,NA,NA,NA,NA,NA,NA,NA,NA,NA,NA,NA,NA,NA,NA,NA,NA,NA,NA,NA,NA,NA,NA,NA,NA,NA,NA,NA,NA,NA,NA,NA,NA,NA,include,exclude
449949,28,other/missing/error,NA,NA,NA,NA,NA,NA,NA,NA,NA,NA,NA,NA,NA,NA,NA,NA,NA,NA,NA,NA,NA,NA,NA,NA,NA,NA,NA,NA,NA,NA,NA,NA,NA,NA,NA,NA,NA,NA,NA,NA,NA,NA,NA,NA,NA,NA,NA,NA,NA,NA,NA,NA,NA,NA,NA,NA,NA,NA,NA,NA,NA,include,exclude
548419,18,other/missing/error,NA,NA,NA,NA,NA,NA,NA,NA,NA,NA,NA,NA,NA,NA,NA,NA,NA,NA,NA,NA,NA,NA,NA,NA,NA,NA,NA,NA,NA,NA,NA,NA,NA,NA,NA,NA,NA,NA,NA,NA,NA,NA,NA,NA,NA,NA,NA,NA,NA,NA,NA,NA,NA,NA,NA,NA,NA,NA,NA,NA,NA,include,exclude
523091,23,other/missing/error,NA,NA,NA,NA,NA,NA,NA,NA,NA,NA,NA,NA,NA,NA,NA,NA,NA,NA,NA,NA,NA,NA,NA,NA,NA,NA,NA,NA,NA,NA,NA,NA,NA,NA,NA,NA,NA,NA,NA,NA,NA,NA,NA,NA,NA,NA,NA,NA,NA,NA,NA,NA,NA,NA,NA,NA,NA,NA,NA,NA,NA,include,exclude
248678,other/missing/error,f,NA,NA,NA,NA,NA,NA,NA,NA,NA,NA,NA,NA,NA,NA,NA,NA,NA,NA,NA,NA,NA,NA,NA,NA,NA,NA,NA,NA,NA,NA,NA,NA,NA,NA,NA,NA,NA,NA,NA,NA,NA,NA,NA,NA,NA,NA,NA,NA,NA,NA,NA,NA,NA,NA,NA,NA,NA,NA,NA,NA,NA,include,exclude
305274,other/missing/error,other/missing/error,NA,NA,NA,NA,NA,NA,NA,NA,NA,NA,NA,NA,NA,NA,NA,NA,NA,NA,NA,NA,NA,NA,NA,NA,NA,NA,NA,NA,NA,NA,NA,NA,NA,NA,NA,NA,NA,NA,NA,NA,NA,NA,NA,NA,NA,NA,NA,NA,NA,NA,NA,NA,NA,NA,NA,NA,NA,NA,NA,NA,NA,include,exclude
340849,21,other/missing/error,NA,NA,NA,NA,NA,NA,NA,NA,NA,NA,NA,NA,NA,NA,NA,NA,NA,NA,NA,NA,NA,NA,NA,NA,NA,NA,NA,NA,NA,NA,NA,NA,NA,NA,NA,NA,NA,NA,NA,NA,NA,NA,NA,NA,NA,NA,NA,NA,NA,NA,NA,NA,NA,NA,NA,NA,NA,NA,NA,NA,NA,include,exclude
107251,other/missing/error,other/missing/error,NA,NA,NA,NA,NA,NA,NA,NA,NA,NA,NA,NA,NA,NA,NA,NA,NA,NA,NA,NA,NA,NA,NA,NA,NA,NA,NA,NA,NA,NA,NA,NA,NA,NA,NA,NA,NA,NA,NA,NA,NA,NA,NA,NA,NA,NA,NA,NA,NA,NA,NA,NA,NA,NA,NA,NA,NA,NA,NA,NA,NA,include,exclude
624960,other/missing/error,f,NA,NA,NA,NA,NA,NA,NA,NA,NA,NA,NA,NA,NA,NA,NA,NA,NA,NA,NA,NA,NA,NA,NA,NA,NA,NA,NA,NA,NA,NA,NA,NA,NA,NA,NA,NA,NA,NA,NA,NA,NA,NA,NA,NA,NA,NA,NA,NA,NA,NA,NA,NA,NA,NA,NA,NA,NA,NA,NA,NA,NA,include,exclude
293615,27,other/missing/error,NA,NA,NA,NA,NA,NA,NA,NA,NA,NA,NA,NA,NA,NA,NA,NA,NA,NA,NA,NA,NA,NA,NA,NA,NA,NA,NA,NA,NA,NA,NA,NA,NA,NA,NA,NA,NA,NA,NA,NA,NA,NA,NA,NA,NA,NA,NA,NA,NA,NA,NA,NA,NA,NA,NA,NA,NA,NA,NA,NA,NA,include,exclude
140150,51,other/missing/error,NA,NA,NA,NA,NA,NA,NA,NA,NA,NA,NA,NA,NA,NA,NA,NA,NA,NA,NA,NA,NA,NA,NA,NA,NA,NA,NA,NA,NA,NA,NA,NA,NA,NA,NA,NA,NA,NA,NA,NA,NA,NA,NA,NA,NA,NA,NA,NA,NA,NA,NA,NA,NA,NA,NA,NA,NA,NA,NA,NA,NA,include,exclude
638205,16,other/missing/error,NA,NA,NA,NA,NA,NA,NA,NA,NA,NA,NA,NA,NA,NA,NA,NA,NA,NA,NA,NA,NA,NA,NA,NA,NA,NA,NA,NA,NA,NA,NA,NA,NA,NA,NA,NA,NA,NA,NA,NA,NA,NA,NA,NA,NA,NA,NA,NA,NA,NA,NA,NA,NA,NA,NA,NA,NA,NA,NA,NA,NA,include,exclude
554627,54,other/missing/error,NA,NA,NA,NA,NA,NA,NA,NA,NA,NA,NA,NA,NA,NA,NA,NA,NA,NA,NA,NA,NA,NA,NA,NA,NA,NA,NA,NA,NA,NA,NA,NA,NA,NA,NA,NA,NA,NA,NA,NA,NA,NA,NA,NA,NA,NA,NA,NA,NA,NA,NA,NA,NA,NA,NA,NA,NA,NA,NA,NA,NA,include,exclude
108098,23,other/missing/error,NA,NA,NA,NA,NA,NA,NA,NA,NA,NA,NA,NA,NA,NA,NA,NA,NA,NA,NA,NA,NA,NA,NA,NA,NA,NA,NA,NA,NA,NA,NA,NA,NA,NA,NA,NA,NA,NA,NA,NA,NA,NA,NA,NA,NA,NA,NA,NA,NA,NA,NA,NA,NA,NA,NA,NA,NA,NA,NA,NA,NA,include,exclude
213510,other/missing/error,other/missing/error,NA,NA,NA,NA,NA,NA,NA,NA,NA,NA,NA,NA,NA,NA,NA,NA,NA,NA,NA,NA,NA,NA,NA,NA,NA,NA,NA,NA,NA,NA,NA,NA,NA,NA,NA,NA,NA,NA,NA,NA,NA,NA,NA,NA,NA,NA,NA,NA,NA,NA,NA,NA,NA,NA,NA,NA,NA,NA,NA,NA,NA,include,exclude
315948,other/missing/error,m,NA,NA,NA,NA,NA,NA,NA,NA,NA,NA,NA,NA,NA,NA,NA,NA,NA,NA,NA,NA,NA,NA,NA,NA,NA,NA,NA,NA,NA,NA,NA,NA,NA,NA,NA,NA,NA,NA,NA,NA,NA,NA,NA,NA,NA,NA,NA,NA,NA,NA,NA,NA,NA,NA,NA,NA,NA,NA,NA,NA,NA,include,exclude
524730,other/missing/error,other/missing/error,NA,NA,NA,NA,NA,NA,NA,NA,NA,NA,NA,NA,NA,NA,NA,NA,NA,NA,NA,NA,NA,NA,NA,NA,NA,NA,NA,NA,NA,NA,NA,NA,NA,NA,NA,NA,NA,NA,NA,NA,NA,NA,NA,NA,NA,NA,NA,NA,NA,NA,NA,NA,NA,NA,NA,NA,NA,NA,NA,NA,NA,include,exclude
450164,42,other/missing/error,NA,NA,NA,NA,NA,NA,NA,NA,NA,NA,NA,NA,NA,NA,NA,NA,NA,NA,NA,NA,NA,NA,NA,NA,NA,NA,NA,NA,NA,NA,NA,NA,NA,NA,NA,NA,NA,NA,NA,NA,NA,NA,NA,NA,NA,NA,NA,NA,NA,NA,NA,NA,NA,NA,NA,NA,NA,NA,NA,NA,NA,include,exclude
404976,other/missing/error,m,NA,NA,NA,NA,NA,NA,NA,NA,NA,NA,NA,NA,NA,NA,NA,NA,NA,NA,NA,NA,NA,NA,NA,NA,NA,NA,NA,NA,NA,NA,NA,NA,NA,NA,NA,NA,NA,NA,NA,NA,NA,NA,NA,NA,NA,NA,NA,NA,NA,NA,NA,NA,NA,NA,NA,NA,NA,NA,NA,NA,NA,include,exclude
225692,other/missing/error,m,NA,NA,NA,NA,NA,NA,NA,NA,NA,NA,NA,NA,NA,NA,NA,NA,NA,NA,NA,NA,NA,NA,NA,NA,NA,NA,NA,NA,NA,NA,NA,NA,NA,NA,NA,NA,NA,NA,NA,NA,NA,NA,NA,NA,NA,NA,NA,NA,NA,NA,NA,NA,NA,NA,NA,NA,NA,NA,NA,NA,NA,include,exclude
482073,other/missing/error,f,NA,NA,NA,NA,NA,NA,NA,NA,NA,NA,NA,NA,NA,NA,NA,NA,NA,NA,NA,NA,NA,NA,NA,NA,NA,NA,NA,NA,NA,NA,NA,NA,NA,NA,NA,NA,NA,NA,NA,NA,NA,NA,NA,NA,NA,NA,NA,NA,NA,NA,NA,NA,NA,NA,NA,NA,NA,NA,NA,NA,NA,include,exclude
620566,other/missing/error,f,NA,NA,NA,NA,NA,NA,NA,NA,NA,NA,NA,NA,NA,NA,NA,NA,NA,NA,NA,NA,NA,NA,NA,NA,NA,NA,NA,NA,NA,NA,NA,NA,NA,NA,NA,NA,NA,NA,NA,NA,NA,NA,NA,NA,NA,NA,NA,NA,NA,NA,NA,NA,NA,NA,NA,NA,NA,NA,NA,NA,NA,include,exclude
239322,other/missing/error,f,NA,NA,NA,NA,NA,NA,NA,NA,NA,NA,NA,NA,NA,NA,NA,NA,NA,NA,NA,NA,NA,NA,NA,NA,NA,NA,NA,NA,NA,NA,NA,NA,NA,NA,NA,NA,NA,NA,NA,NA,NA,NA,NA,NA,NA,NA,NA,NA,NA,NA,NA,NA,NA,NA,NA,NA,NA,NA,NA,NA,NA,include,exclude
285743,28,other/missing/error,NA,NA,NA,NA,NA,NA,NA,NA,NA,NA,NA,NA,NA,NA,NA,NA,NA,NA,NA,NA,NA,NA,NA,NA,NA,NA,NA,NA,NA,NA,NA,NA,NA,NA,NA,NA,NA,NA,NA,NA,NA,NA,NA,NA,NA,NA,NA,NA,NA,NA,NA,NA,NA,NA,NA,NA,NA,NA,NA,NA,NA,include,exclude
173131,other/missing/error,other/missing/error,NA,NA,NA,NA,NA,NA,NA,NA,NA,NA,NA,NA,NA,NA,NA,NA,NA,NA,NA,NA,NA,NA,NA,NA,NA,NA,NA,NA,NA,NA,NA,NA,NA,NA,NA,NA,NA,NA,NA,NA,NA,NA,NA,NA,NA,NA,NA,NA,NA,NA,NA,NA,NA,NA,NA,NA,NA,NA,NA,NA,NA,include,exclude
95346,other/missing/error,other/missing/error,NA,NA,NA,NA,NA,NA,NA,NA,NA,NA,NA,NA,NA,NA,NA,NA,NA,NA,NA,NA,NA,NA,NA,NA,NA,NA,NA,NA,NA,NA,NA,NA,NA,NA,NA,NA,NA,NA,NA,NA,NA,NA,NA,NA,NA,NA,NA,NA,NA,NA,NA,NA,NA,NA,NA,NA,NA,NA,NA,NA,NA,include,exclude
615570,28,other/missing/error,NA,NA,NA,NA,NA,NA,NA,NA,NA,NA,NA,NA,NA,NA,NA,NA,NA,NA,NA,NA,NA,NA,NA,NA,NA,NA,NA,NA,NA,NA,NA,NA,NA,NA,NA,NA,NA,NA,NA,NA,NA,NA,NA,NA,NA,NA,NA,NA,NA,NA,NA,NA,NA,NA,NA,NA,NA,NA,NA,NA,NA,include,exclude
571870,other/missing/error,other/missing/error,NA,NA,NA,NA,NA,NA,NA,NA,NA,NA,NA,NA,NA,NA,NA,NA,NA,NA,NA,NA,NA,NA,NA,NA,NA,NA,NA,NA,NA,NA,NA,NA,NA,NA,NA,NA,NA,NA,NA,NA,NA,NA,NA,NA,NA,NA,NA,NA,NA,NA,NA,NA,NA,NA,NA,NA,NA,NA,NA,NA,NA,include,exclude
254857,24,other/missing/error,NA,NA,NA,NA,NA,NA,NA,NA,NA,NA,NA,NA,NA,NA,NA,NA,NA,NA,NA,NA,NA,NA,NA,NA,NA,NA,NA,NA,NA,NA,NA,NA,NA,NA,NA,NA,NA,NA,NA,NA,NA,NA,NA,NA,NA,NA,NA,NA,NA,NA,NA,NA,NA,NA,NA,NA,NA,NA,NA,NA,NA,include,exclude
385256,35,other/missing/error,NA,NA,NA,NA,NA,NA,NA,NA,NA,NA,NA,NA,NA,NA,NA,NA,NA,NA,NA,NA,NA,NA,NA,NA,NA,NA,NA,NA,NA,NA,NA,NA,NA,NA,NA,NA,NA,NA,NA,NA,NA,NA,NA,NA,NA,NA,NA,NA,NA,NA,NA,NA,NA,NA,NA,NA,NA,NA,NA,NA,NA,include,exclude
642176,19,other/missing/error,NA,NA,NA,NA,NA,NA,NA,NA,NA,NA,NA,NA,NA,NA,NA,NA,NA,NA,NA,NA,NA,NA,NA,NA,NA,NA,NA,NA,NA,NA,NA,NA,NA,NA,NA,NA,NA,NA,NA,NA,NA,NA,NA,NA,NA,NA,NA,NA,NA,NA,NA,NA,NA,NA,NA,NA,NA,NA,NA,NA,NA,include,exclude
232592,other/missing/error,m,NA,NA,NA,NA,NA,NA,NA,NA,NA,NA,NA,NA,NA,NA,NA,NA,NA,NA,NA,NA,NA,NA,NA,NA,NA,NA,NA,NA,NA,NA,NA,NA,NA,NA,NA,NA,NA,NA,NA,NA,NA,NA,NA,NA,NA,NA,NA,NA,NA,NA,NA,NA,NA,NA,NA,NA,NA,NA,NA,NA,NA,include,exclude
315389,18,other/missing/error,NA,NA,NA,NA,NA,NA,NA,NA,NA,NA,NA,NA,NA,NA,NA,NA,NA,NA,NA,NA,NA,NA,NA,NA,NA,NA,NA,NA,NA,NA,NA,NA,NA,NA,NA,NA,NA,NA,NA,NA,NA,NA,NA,NA,NA,NA,NA,NA,NA,NA,NA,NA,NA,NA,NA,NA,NA,NA,NA,NA,NA,include,exclude
216349,34,other/missing/error,NA,NA,NA,NA,NA,NA,NA,NA,NA,NA,NA,NA,NA,NA,NA,NA,NA,NA,NA,NA,NA,NA,NA,NA,NA,NA,NA,NA,NA,NA,NA,NA,NA,NA,NA,NA,NA,NA,NA,NA,NA,NA,NA,NA,NA,NA,NA,NA,NA,NA,NA,NA,NA,NA,NA,NA,NA,NA,NA,NA,NA,include,exclude
507340,22,other/missing/error,NA,NA,NA,NA,NA,NA,NA,NA,NA,NA,NA,NA,NA,NA,NA,NA,NA,NA,NA,NA,NA,NA,NA,NA,NA,NA,NA,NA,NA,NA,NA,NA,NA,NA,NA,NA,NA,NA,NA,NA,NA,NA,NA,NA,NA,NA,NA,NA,NA,NA,NA,NA,NA,NA,NA,NA,NA,NA,NA,NA,NA,include,exclude
409719,other/missing/error,other/missing/error,NA,NA,NA,NA,NA,NA,NA,NA,NA,NA,NA,NA,NA,NA,NA,NA,NA,NA,NA,NA,NA,NA,NA,NA,NA,NA,NA,NA,NA,NA,NA,NA,NA,NA,NA,NA,NA,NA,NA,NA,NA,NA,NA,NA,NA,NA,NA,NA,NA,NA,NA,NA,NA,NA,NA,NA,NA,NA,NA,NA,NA,include,exclude
134710,other/missing/error,other/missing/error,NA,NA,NA,NA,NA,NA,NA,NA,NA,NA,NA,NA,NA,NA,NA,NA,NA,NA,NA,NA,NA,NA,NA,NA,NA,NA,NA,NA,NA,NA,NA,NA,NA,NA,NA,NA,NA,NA,NA,NA,NA,NA,NA,NA,NA,NA,NA,NA,NA,NA,NA,NA,NA,NA,NA,NA,NA,NA,NA,NA,NA,include,exclude
547848,18,other/missing/error,NA,NA,NA,NA,NA,NA,NA,NA,NA,NA,NA,NA,NA,NA,NA,NA,NA,NA,NA,NA,NA,NA,NA,NA,NA,NA,NA,NA,NA,NA,NA,NA,NA,NA,NA,NA,NA,NA,NA,NA,NA,NA,NA,NA,NA,NA,NA,NA,NA,NA,NA,NA,NA,NA,NA,NA,NA,NA,NA,NA,NA,include,exclude
203750,other/missing/error,other/missing/error,NA,NA,NA,NA,NA,NA,NA,NA,NA,NA,NA,NA,NA,NA,NA,NA,NA,NA,NA,NA,NA,NA,NA,NA,NA,NA,NA,NA,NA,NA,NA,NA,NA,NA,NA,NA,NA,NA,NA,NA,NA,NA,NA,NA,NA,NA,NA,NA,NA,NA,NA,NA,NA,NA,NA,NA,NA,NA,NA,NA,NA,include,exclude
114473,other/missing/error,other/missing/error,NA,NA,NA,NA,NA,NA,NA,NA,NA,NA,NA,NA,NA,NA,NA,NA,NA,NA,NA,NA,NA,NA,NA,NA,NA,NA,NA,NA,NA,NA,NA,NA,NA,NA,NA,NA,NA,NA,NA,NA,NA,NA,NA,NA,NA,NA,NA,NA,NA,NA,NA,NA,NA,NA,NA,NA,NA,NA,NA,NA,NA,include,exclude
264795,27,other/missing/error,NA,NA,NA,NA,NA,NA,NA,NA,NA,NA,NA,NA,NA,NA,NA,NA,NA,NA,NA,NA,NA,NA,NA,NA,NA,NA,NA,NA,NA,NA,NA,NA,NA,NA,NA,NA,NA,NA,NA,NA,NA,NA,NA,NA,NA,NA,NA,NA,NA,NA,NA,NA,NA,NA,NA,NA,NA,NA,NA,NA,NA,include,exclude
206376,other/missing/error,other/missing/error,NA,NA,NA,NA,NA,NA,NA,NA,NA,NA,NA,NA,NA,NA,NA,NA,NA,NA,NA,NA,NA,NA,NA,NA,NA,NA,NA,NA,NA,NA,NA,NA,NA,NA,NA,NA,NA,NA,NA,NA,NA,NA,NA,NA,NA,NA,NA,NA,NA,NA,NA,NA,NA,NA,NA,NA,NA,NA,NA,NA,NA,include,exclude
185742,other/missing/error,other/missing/error,NA,NA,NA,NA,NA,NA,NA,NA,NA,NA,NA,NA,NA,NA,NA,NA,NA,NA,NA,NA,NA,NA,NA,NA,NA,NA,NA,NA,NA,NA,NA,NA,NA,NA,NA,NA,NA,NA,NA,NA,NA,NA,NA,NA,NA,NA,NA,NA,NA,NA,NA,NA,NA,NA,NA,NA,NA,NA,NA,NA,NA,include,exclude
225109,39,other/missing/error,NA,NA,NA,NA,NA,NA,NA,NA,NA,NA,NA,NA,NA,NA,NA,NA,NA,NA,NA,NA,NA,NA,NA,NA,NA,NA,NA,NA,NA,NA,NA,NA,NA,NA,NA,NA,NA,NA,NA,NA,NA,NA,NA,NA,NA,NA,NA,NA,NA,NA,NA,NA,NA,NA,NA,NA,NA,NA,NA,NA,NA,include,exclude
311754,other/missing/error,m,NA,NA,NA,NA,NA,NA,NA,NA,NA,NA,NA,NA,NA,NA,NA,NA,NA,NA,NA,NA,NA,NA,NA,NA,NA,NA,NA,NA,NA,NA,NA,NA,NA,NA,NA,NA,NA,NA,NA,NA,NA,NA,NA,NA,NA,NA,NA,NA,NA,NA,NA,NA,NA,NA,NA,NA,NA,NA,NA,NA,NA,include,exclude
155282,other/missing/error,other/missing/error,NA,NA,NA,NA,NA,NA,NA,NA,NA,NA,NA,NA,NA,NA,NA,NA,NA,NA,NA,NA,NA,NA,NA,NA,NA,NA,NA,NA,NA,NA,NA,NA,NA,NA,NA,NA,NA,NA,NA,NA,NA,NA,NA,NA,NA,NA,NA,NA,NA,NA,NA,NA,NA,NA,NA,NA,NA,NA,NA,NA,NA,include,exclude
512940,other/missing/error,f,NA,NA,NA,NA,NA,NA,NA,NA,NA,NA,NA,NA,NA,NA,NA,NA,NA,NA,NA,NA,NA,NA,NA,NA,NA,NA,NA,NA,NA,NA,NA,NA,NA,NA,NA,NA,NA,NA,NA,NA,NA,NA,NA,NA,NA,NA,NA,NA,NA,NA,NA,NA,NA,NA,NA,NA,NA,NA,NA,NA,NA,include,exclude
621050,17,other/missing/error,NA,NA,NA,NA,NA,NA,NA,NA,NA,NA,NA,NA,NA,NA,NA,NA,NA,NA,NA,NA,NA,NA,NA,NA,NA,NA,NA,NA,NA,NA,NA,NA,NA,NA,NA,NA,NA,NA,NA,NA,NA,NA,NA,NA,NA,NA,NA,NA,NA,NA,NA,NA,NA,NA,NA,NA,NA,NA,NA,NA,NA,include,exclude
442686,36,other/missing/error,NA,NA,NA,NA,NA,NA,NA,NA,NA,NA,NA,NA,NA,NA,NA,NA,NA,NA,NA,NA,NA,NA,NA,NA,NA,NA,NA,NA,NA,NA,NA,NA,NA,NA,NA,NA,NA,NA,NA,NA,NA,NA,NA,NA,NA,NA,NA,NA,NA,NA,NA,NA,NA,NA,NA,NA,NA,NA,NA,NA,NA,include,exclude
484144,27,other/missing/error,NA,NA,NA,NA,NA,NA,NA,NA,NA,NA,NA,NA,NA,NA,NA,NA,NA,NA,NA,NA,NA,NA,NA,NA,NA,NA,NA,NA,NA,NA,NA,NA,NA,NA,NA,NA,NA,NA,NA,NA,NA,NA,NA,NA,NA,NA,NA,NA,NA,NA,NA,NA,NA,NA,NA,NA,NA,NA,NA,NA,NA,include,exclude
500168,other/missing/error,f,NA,NA,NA,NA,NA,NA,NA,NA,NA,NA,NA,NA,NA,NA,NA,NA,NA,NA,NA,NA,NA,NA,NA,NA,NA,NA,NA,NA,NA,NA,NA,NA,NA,NA,NA,NA,NA,NA,NA,NA,NA,NA,NA,NA,NA,NA,NA,NA,NA,NA,NA,NA,NA,NA,NA,NA,NA,NA,NA,NA,NA,include,exclude
142936,other/missing/error,other/missing/error,NA,NA,NA,NA,NA,NA,NA,NA,NA,NA,NA,NA,NA,NA,NA,NA,NA,NA,NA,NA,NA,NA,NA,NA,NA,NA,NA,NA,NA,NA,NA,NA,NA,NA,NA,NA,NA,NA,NA,NA,NA,NA,NA,NA,NA,NA,NA,NA,NA,NA,NA,NA,NA,NA,NA,NA,NA,NA,NA,NA,NA,include,exclude
173261,other/missing/error,other/missing/error,NA,NA,NA,NA,NA,NA,NA,NA,NA,NA,NA,NA,NA,NA,NA,NA,NA,NA,NA,NA,NA,NA,NA,NA,NA,NA,NA,NA,NA,NA,NA,NA,NA,NA,NA,NA,NA,NA,NA,NA,NA,NA,NA,NA,NA,NA,NA,NA,NA,NA,NA,NA,NA,NA,NA,NA,NA,NA,NA,NA,NA,include,exclude
550873,other/missing/error,m,NA,NA,NA,NA,NA,NA,NA,NA,NA,NA,NA,NA,NA,NA,NA,NA,NA,NA,NA,NA,NA,NA,NA,NA,NA,NA,NA,NA,NA,NA,NA,NA,NA,NA,NA,NA,NA,NA,NA,NA,NA,NA,NA,NA,NA,NA,NA,NA,NA,NA,NA,NA,NA,NA,NA,NA,NA,NA,NA,NA,NA,include,exclude
146978,other/missing/error,other/missing/error,NA,NA,NA,NA,NA,NA,NA,NA,NA,NA,NA,NA,NA,NA,NA,NA,NA,NA,NA,NA,NA,NA,NA,NA,NA,NA,NA,NA,NA,NA,NA,NA,NA,NA,NA,NA,NA,NA,NA,NA,NA,NA,NA,NA,NA,NA,NA,NA,NA,NA,NA,NA,NA,NA,NA,NA,NA,NA,NA,NA,NA,include,exclude
444511,other/missing/error,m,NA,NA,NA,NA,NA,NA,NA,NA,NA,NA,NA,NA,NA,NA,NA,NA,NA,NA,NA,NA,NA,NA,NA,NA,NA,NA,NA,NA,NA,NA,NA,NA,NA,NA,NA,NA,NA,NA,NA,NA,NA,NA,NA,NA,NA,NA,NA,NA,NA,NA,NA,NA,NA,NA,NA,NA,NA,NA,NA,NA,NA,include,exclude
225407,36,other/missing/error,NA,NA,NA,NA,NA,NA,NA,NA,NA,NA,NA,NA,NA,NA,NA,NA,NA,NA,NA,NA,NA,NA,NA,NA,NA,NA,NA,NA,NA,NA,NA,NA,NA,NA,NA,NA,NA,NA,NA,NA,NA,NA,NA,NA,NA,NA,NA,NA,NA,NA,NA,NA,NA,NA,NA,NA,NA,NA,NA,NA,NA,include,exclude
500601,24,other/missing/error,NA,NA,NA,NA,NA,NA,NA,NA,NA,NA,NA,NA,NA,NA,NA,NA,NA,NA,NA,NA,NA,NA,NA,NA,NA,NA,NA,NA,NA,NA,NA,NA,NA,NA,NA,NA,NA,NA,NA,NA,NA,NA,NA,NA,NA,NA,NA,NA,NA,NA,NA,NA,NA,NA,NA,NA,NA,NA,NA,NA,NA,include,exclude
627328,22,other/missing/error,NA,NA,NA,NA,NA,NA,NA,NA,NA,NA,NA,NA,NA,NA,NA,NA,NA,NA,NA,NA,NA,NA,NA,NA,NA,NA,NA,NA,NA,NA,NA,NA,NA,NA,NA,NA,NA,NA,NA,NA,NA,NA,NA,NA,NA,NA,NA,NA,NA,NA,NA,NA,NA,NA,NA,NA,NA,NA,NA,NA,NA,include,exclude
291446,23,other/missing/error,NA,NA,NA,NA,NA,NA,NA,NA,NA,NA,NA,NA,NA,NA,NA,NA,NA,NA,NA,NA,NA,NA,NA,NA,NA,NA,NA,NA,NA,NA,NA,NA,NA,NA,NA,NA,NA,NA,NA,NA,NA,NA,NA,NA,NA,NA,NA,NA,NA,NA,NA,NA,NA,NA,NA,NA,NA,NA,NA,NA,NA,include,exclude
405160,18,other/missing/error,NA,NA,NA,NA,NA,NA,NA,NA,NA,NA,NA,NA,NA,NA,NA,NA,NA,NA,NA,NA,NA,NA,NA,NA,NA,NA,NA,NA,NA,NA,NA,NA,NA,NA,NA,NA,NA,NA,NA,NA,NA,NA,NA,NA,NA,NA,NA,NA,NA,NA,NA,NA,NA,NA,NA,NA,NA,NA,NA,NA,NA,include,exclude
220917,other/missing/error,f,NA,NA,NA,NA,NA,NA,NA,NA,NA,NA,NA,NA,NA,NA,NA,NA,NA,NA,NA,NA,NA,NA,NA,NA,NA,NA,NA,NA,NA,NA,NA,NA,NA,NA,NA,NA,NA,NA,NA,NA,NA,NA,NA,NA,NA,NA,NA,NA,NA,NA,NA,NA,NA,NA,NA,NA,NA,NA,NA,NA,NA,include,exclude
307955,18,other/missing/error,NA,NA,NA,NA,NA,NA,NA,NA,NA,NA,NA,NA,NA,NA,NA,NA,NA,NA,NA,NA,NA,NA,NA,NA,NA,NA,NA,NA,NA,NA,NA,NA,NA,NA,NA,NA,NA,NA,NA,NA,NA,NA,NA,NA,NA,NA,NA,NA,NA,NA,NA,NA,NA,NA,NA,NA,NA,NA,NA,NA,NA,include,exclude
450312,other/missing/error,f,NA,NA,NA,NA,NA,NA,NA,NA,NA,NA,NA,NA,NA,NA,NA,NA,NA,NA,NA,NA,NA,NA,NA,NA,NA,NA,NA,NA,NA,NA,NA,NA,NA,NA,NA,NA,NA,NA,NA,NA,NA,NA,NA,NA,NA,NA,NA,NA,NA,NA,NA,NA,NA,NA,NA,NA,NA,NA,NA,NA,NA,include,exclude
568787,other/missing/error,other/missing/error,NA,NA,NA,NA,NA,NA,NA,NA,NA,NA,NA,NA,NA,NA,NA,NA,NA,NA,NA,NA,NA,NA,NA,NA,NA,NA,NA,NA,NA,NA,NA,NA,NA,NA,NA,NA,NA,NA,NA,NA,NA,NA,NA,NA,NA,NA,NA,NA,NA,NA,NA,NA,NA,NA,NA,NA,NA,NA,NA,NA,NA,include,exclude
501629,other/missing/error,f,NA,NA,NA,NA,NA,NA,NA,NA,NA,NA,NA,NA,NA,NA,NA,NA,NA,NA,NA,NA,NA,NA,NA,NA,NA,NA,NA,NA,NA,NA,NA,NA,NA,NA,NA,NA,NA,NA,NA,NA,NA,NA,NA,NA,NA,NA,NA,NA,NA,NA,NA,NA,NA,NA,NA,NA,NA,NA,NA,NA,NA,include,exclude
105874,other/missing/error,other/missing/error,NA,NA,NA,NA,NA,NA,NA,NA,NA,NA,NA,NA,NA,NA,NA,NA,NA,NA,NA,NA,NA,NA,NA,NA,NA,NA,NA,NA,NA,NA,NA,NA,NA,NA,NA,NA,NA,NA,NA,NA,NA,NA,NA,NA,NA,NA,NA,NA,NA,NA,NA,NA,NA,NA,NA,NA,NA,NA,NA,NA,NA,include,exclude
527153,20,other/missing/error,NA,NA,NA,NA,NA,NA,NA,NA,NA,NA,NA,NA,NA,NA,NA,NA,NA,NA,NA,NA,NA,NA,NA,NA,NA,NA,NA,NA,NA,NA,NA,NA,NA,NA,NA,NA,NA,NA,NA,NA,NA,NA,NA,NA,NA,NA,NA,NA,NA,NA,NA,NA,NA,NA,NA,NA,NA,NA,NA,NA,NA,include,exclude
562246,55,other/missing/error,NA,NA,NA,NA,NA,NA,NA,NA,NA,NA,NA,NA,NA,NA,NA,NA,NA,NA,NA,NA,NA,NA,NA,NA,NA,NA,NA,NA,NA,NA,NA,NA,NA,NA,NA,NA,NA,NA,NA,NA,NA,NA,NA,NA,NA,NA,NA,NA,NA,NA,NA,NA,NA,NA,NA,NA,NA,NA,NA,NA,NA,include,exclude
304018,20,other/missing/error,NA,NA,NA,NA,NA,NA,NA,NA,NA,NA,NA,NA,NA,NA,NA,NA,NA,NA,NA,NA,NA,NA,NA,NA,NA,NA,NA,NA,NA,NA,NA,NA,NA,NA,NA,NA,NA,NA,NA,NA,NA,NA,NA,NA,NA,NA,NA,NA,NA,NA,NA,NA,NA,NA,NA,NA,NA,NA,NA,NA,NA,include,exclude
134199,other/missing/error,other/missing/error,NA,NA,NA,NA,NA,NA,NA,NA,NA,NA,NA,NA,NA,NA,NA,NA,NA,NA,NA,NA,NA,NA,NA,NA,NA,NA,NA,NA,NA,NA,NA,NA,NA,NA,NA,NA,NA,NA,NA,NA,NA,NA,NA,NA,NA,NA,NA,NA,NA,NA,NA,NA,NA,NA,NA,NA,NA,NA,NA,NA,NA,include,exclude
248481,37,other/missing/error,NA,NA,NA,NA,NA,NA,NA,NA,NA,NA,NA,NA,NA,NA,NA,NA,NA,NA,NA,NA,NA,NA,NA,NA,NA,NA,NA,NA,NA,NA,NA,NA,NA,NA,NA,NA,NA,NA,NA,NA,NA,NA,NA,NA,NA,NA,NA,NA,NA,NA,NA,NA,NA,NA,NA,NA,NA,NA,NA,NA,NA,include,exclude
